EventIndex,UTCTimestamp,UTCDate,LocalTimestamp,LocalTimezone,LocalDate,ExperimentID,ExperimentVersion,TreeNodeKey,RepeatKey,ScheduleID,ParticipantPublicID,ParticipantPrivateID,ParticipantStartingGroup,ParticipantStatus,ParticipantCompletionCode,ParticipantExternalSessionID,ParticipantDeviceType,ParticipantDevice,ParticipantOS,ParticipantBrowser,ParticipantMonitorSize,ParticipantViewportSize,Checkpoint,TaskName,TaskVersion,randomiser_6z9f,branch_kxy7,checkpoint_tqwf,branch_rtog,branch_7dgx,checkpoint_mqen,branch_yx2c,branch_3n8o,branch_f1s6,branch_x6l7,branch_21hs,Spreadsheet,SpreadsheetName,SpreadsheetRow,TrialNumber,ScreenNumber,ScreenName,ZoneName,ZoneType,ReactionTime,ReactionOnset,ResponseType,Response,Attempt,Correct,Incorrect,Dishonest,XCoordinate,YCoordinate,TimedOut,randomise_blocks,randomise_trials,display,ANSWER,left_button,right_button,advice,orderno,trialno,ShowProgressBar,image,prob_blue_corr,prob_group_corr,corr_ans,group_corr,group_choice,blue_pos,indiv_vol,soc_vol,ITI_1,ITI_2,ITI_3,ITI_4,condition
1,1671024578176,14/12/2022 13:29:38,1671024578056,0,14/12/2022 13:29:38,109680,33,task-qrxs,repeat-7g8d#1->-repeat-38fk#1->-repeat-qjz7#1->-repeat-5t6i#1,25951528,BLIND,7659497,NaN,complete,NaN,NaN,computer,Desktop or Laptop,Mac OS 10.15.7,Safari 14.1.2,1440x900,1440x820,End of Day 1,SLS,89,A,Pass,End of Day 1,Pass,NaN,NaN,NaN,Pass,NaN,Pass,NaN,schedule_B,,NaN,NaN,NaN,,,,NaN,NaN,NaN,,NaN,0,1,0,NaN,NaN,NaN,NaN,NaN,,,,,,NaN,NaN,NaN,NaN,NaN,NaN,NaN,NaN,NaN,NaN,,,NaN,NaN,NaN,NaN,
2,1671024580586,14/12/2022 13:29:40,1671024580496,0,14/12/2022 13:29:40,109680,33,task-qrxs,repeat-7g8d#1->-repeat-38fk#1->-repeat-qjz7#1->-repeat-5t6i#1,25951528,BLIND,7659497,NaN,complete,NaN,NaN,computer,Desktop or Laptop,Mac OS 10.15.7,Safari 14.1.2,1440x900,1440x820,End of Day 1,SLS,89,A,Pass,End of Day 1,Pass,NaN,NaN,NaN,Pass,NaN,Pass,NaN,schedule_B,schedule_B,1,1,1,Screen 1,Zone1,continue_button,2264,NaN,NaN,,NaN,0,1,0,NaN,NaN,NaN,NaN,NaN,getReadyb,,,,,1,NaN,NaN,NaN,NaN,NaN,NaN,NaN,NaN,NaN,,,NaN,NaN,NaN,NaN,
3,1671024582163,14/12/2022 13:29:42,1671024582096,0,14/12/2022 13:29:42,109680,33,task-qrxs,repeat-7g8d#1->-repeat-38fk#1->-repeat-qjz7#1->-repeat-5t6i#1,25951528,BLIND,7659497,NaN,complete,NaN,NaN,computer,Desktop or Laptop,Mac OS 10.15.7,Safari 14.1.2,1440x900,1440x820,End of Day 1,SLS,89,A,Pass,End of Day 1,Pass,NaN,NaN,NaN,Pass,NaN,Pass,NaN,schedule_B,schedule_B,1,1,2,Screen 2,Zone1,continue_button,1592,NaN,NaN,,NaN,0,1,0,NaN,NaN,NaN,NaN,NaN,getReadyb,,,,,1,NaN,NaN,NaN,NaN,NaN,NaN,NaN,NaN,NaN,,,NaN,NaN,NaN,NaN,
4,1671024584579,14/12/2022 13:29:44,1671024584498,0,14/12/2022 13:29:44,109680,33,task-qrxs,repeat-7g8d#1->-repeat-38fk#1->-repeat-qjz7#1->-repeat-5t6i#1,25951528,BLIND,7659497,NaN,complete,NaN,NaN,computer,Desktop or Laptop,Mac OS 10.15.7,Safari 14.1.2,1440x900,1440x820,End of Day 1,SLS,89,A,Pass,End of Day 1,Pass,NaN,NaN,NaN,Pass,NaN,Pass,NaN,schedule_B,schedule_B,2,1,1,Screen 1,Zone1,continue_button,2381,NaN,NaN,,NaN,0,1,0,NaN,NaN,NaN,NaN,NaN,trial_right,greenBox.png,greenBox.png,blueBox.png,al2_uncon.png,2,1,NaN,NaN,0.85,0.15,0,0,1,0,Stable,Stable,3.471,0.525,1.66,2.529,inexpert
5,1671024585571,14/12/2022 13:29:45,1671024585493,0,14/12/2022 13:29:45,109680,33,task-qrxs,repeat-7g8d#1->-repeat-38fk#1->-repeat-qjz7#1->-repeat-5t6i#1,25951528,BLIND,7659497,NaN,complete,NaN,NaN,computer,Desktop or Laptop,Mac OS 10.15.7,Safari 14.1.2,1440x900,1440x820,End of Day 1,SLS,89,A,Pass,End of Day 1,Pass,NaN,NaN,NaN,Pass,NaN,Pass,NaN,schedule_B,schedule_B,2,1,2,individual,Zone4,timelimit_screen,1000,NaN,NaN,,NaN,0,1,0,NaN,NaN,1,NaN,NaN,trial_right,greenBox.png,greenBox.png,blueBox.png,al2_uncon.png,2,1,NaN,NaN,0.85,0.15,0,0,1,0,Stable,Stable,3.471,0.525,1.66,2.529,inexpert
6,1671024586869,14/12/2022 13:29:46,1671024586787,0,14/12/2022 13:29:46,109680,33,task-qrxs,repeat-7g8d#1->-repeat-38fk#1->-repeat-qjz7#1->-repeat-5t6i#1,25951528,BLIND,7659497,NaN,complete,NaN,NaN,computer,Desktop or Laptop,Mac OS 10.15.7,Safari 14.1.2,1440x900,1440x820,End of Day 1,SLS,89,A,Pass,End of Day 1,Pass,NaN,NaN,NaN,Pass,NaN,Pass,NaN,schedule_B,schedule_B,2,1,3,offer,Zone3,response_button_image,1281,NaN,NaN,blueBox.png,1,0,1,0,NaN,NaN,NaN,NaN,NaN,trial_right,greenBox.png,greenBox.png,blueBox.png,al2_uncon.png,2,1,NaN,NaN,0.85,0.15,0,0,1,0,Stable,Stable,3.471,0.525,1.66,2.529,inexpert
7,1671024588865,14/12/2022 13:29:48,1671024588777,0,14/12/2022 13:29:48,109680,33,task-qrxs,repeat-7g8d#1->-repeat-38fk#1->-repeat-qjz7#1->-repeat-5t6i#1,25951528,BLIND,7659497,NaN,complete,NaN,NaN,computer,Desktop or Laptop,Mac OS 10.15.7,Safari 14.1.2,1440x900,1440x820,End of Day 1,SLS,89,A,Pass,End of Day 1,Pass,NaN,NaN,NaN,Pass,NaN,Pass,NaN,schedule_B,schedule_B,2,1,5,feedback_r,Zone7,timelimit_screen,2000,NaN,NaN,,NaN,0,1,0,NaN,NaN,1,NaN,NaN,trial_right,greenBox.png,greenBox.png,blueBox.png,al2_uncon.png,2,1,NaN,NaN,0.85,0.15,0,0,1,0,Stable,Stable,3.471,0.525,1.66,2.529,inexpert
8,1671024588971,14/12/2022 13:29:48,1671024588926,0,14/12/2022 13:29:48,109680,33,task-qrxs,repeat-7g8d#1->-repeat-38fk#1->-repeat-qjz7#1->-repeat-5t6i#1,25951528,BLIND,7659497,NaN,complete,NaN,NaN,computer,Desktop or Laptop,Mac OS 10.15.7,Safari 14.1.2,1440x900,1440x820,End of Day 1,SLS,89,A,Pass,End of Day 1,Pass,NaN,NaN,NaN,Pass,NaN,Pass,NaN,schedule_B,schedule_B,2,1,6,end,Zone1,timelimit_screen,150,NaN,NaN,,NaN,0,1,0,NaN,NaN,1,NaN,NaN,trial_right,greenBox.png,greenBox.png,blueBox.png,al2_uncon.png,2,1,NaN,NaN,0.85,0.15,0,0,1,0,Stable,Stable,3.471,0.525,1.66,2.529,inexpert
9,1671024590405,14/12/2022 13:29:50,1671024590336,0,14/12/2022 13:29:50,109680,33,task-qrxs,repeat-7g8d#1->-repeat-38fk#1->-repeat-qjz7#1->-repeat-5t6i#1,25951528,BLIND,7659497,NaN,complete,NaN,NaN,computer,Desktop or Laptop,Mac OS 10.15.7,Safari 14.1.2,1440x900,1440x820,End of Day 1,SLS,89,A,Pass,End of Day 1,Pass,NaN,NaN,NaN,Pass,NaN,Pass,NaN,schedule_B,schedule_B,3,1,1,Screen 1,Zone1,continue_button,1393,NaN,NaN,,NaN,0,1,0,NaN,NaN,NaN,NaN,NaN,trial_left,blueBox.png,greenBox.png,blueBox.png,al2_uncon.png,3,2,NaN,NaN,0.85,0.15,1,0,0,0,Stable,Stable,1.782,1.168,1.168,2.462,inexpert
10,1671024591398,14/12/2022 13:29:51,1671024591326,0,14/12/2022 13:29:51,109680,33,task-qrxs,repeat-7g8d#1->-repeat-38fk#1->-repeat-qjz7#1->-repeat-5t6i#1,25951528,BLIND,7659497,NaN,complete,NaN,NaN,computer,Desktop or Laptop,Mac OS 10.15.7,Safari 14.1.2,1440x900,1440x820,End of Day 1,SLS,89,A,Pass,End of Day 1,Pass,NaN,NaN,NaN,Pass,NaN,Pass,NaN,schedule_B,schedule_B,3,1,2,individual,Zone4,timelimit_screen,1000,NaN,NaN,,NaN,0,1,0,NaN,NaN,1,NaN,NaN,trial_left,blueBox.png,greenBox.png,blueBox.png,al2_uncon.png,3,2,NaN,NaN,0.85,0.15,1,0,0,0,Stable,Stable,1.782,1.168,1.168,2.462,inexpert
11,1671024592261,14/12/2022 13:29:52,1671024592191,0,14/12/2022 13:29:52,109680,33,task-qrxs,repeat-7g8d#1->-repeat-38fk#1->-repeat-qjz7#1->-repeat-5t6i#1,25951528,BLIND,7659497,NaN,complete,NaN,NaN,computer,Desktop or Laptop,Mac OS 10.15.7,Safari 14.1.2,1440x900,1440x820,End of Day 1,SLS,89,A,Pass,End of Day 1,Pass,NaN,NaN,NaN,Pass,NaN,Pass,NaN,schedule_B,schedule_B,3,1,3,offer,bluebox,response_button_image,854,NaN,NaN,blueBox.png,1,1,0,0,NaN,NaN,NaN,NaN,NaN,trial_left,blueBox.png,greenBox.png,blueBox.png,al2_uncon.png,3,2,NaN,NaN,0.85,0.15,1,0,0,0,Stable,Stable,1.782,1.168,1.168,2.462,inexpert
12,1671024594253,14/12/2022 13:29:54,1671024594176,0,14/12/2022 13:29:54,109680,33,task-qrxs,repeat-7g8d#1->-repeat-38fk#1->-repeat-qjz7#1->-repeat-5t6i#1,25951528,BLIND,7659497,NaN,complete,NaN,NaN,computer,Desktop or Laptop,Mac OS 10.15.7,Safari 14.1.2,1440x900,1440x820,End of Day 1,SLS,89,A,Pass,End of Day 1,Pass,NaN,NaN,NaN,Pass,NaN,Pass,NaN,schedule_B,schedule_B,3,1,5,feedback_r,Zone7,timelimit_screen,2000,NaN,NaN,,NaN,0,1,0,NaN,NaN,1,NaN,NaN,trial_left,blueBox.png,greenBox.png,blueBox.png,al2_uncon.png,3,2,NaN,NaN,0.85,0.15,1,0,0,0,Stable,Stable,1.782,1.168,1.168,2.462,inexpert
13,1671024594391,14/12/2022 13:29:54,1671024594326,0,14/12/2022 13:29:54,109680,33,task-qrxs,repeat-7g8d#1->-repeat-38fk#1->-repeat-qjz7#1->-repeat-5t6i#1,25951528,BLIND,7659497,NaN,complete,NaN,NaN,computer,Desktop or Laptop,Mac OS 10.15.7,Safari 14.1.2,1440x900,1440x820,End of Day 1,SLS,89,A,Pass,End of Day 1,Pass,NaN,NaN,NaN,Pass,NaN,Pass,NaN,schedule_B,schedule_B,3,1,6,end,Zone1,timelimit_screen,150,NaN,NaN,,NaN,0,1,0,NaN,NaN,1,NaN,NaN,trial_left,blueBox.png,greenBox.png,blueBox.png,al2_uncon.png,3,2,NaN,NaN,0.85,0.15,1,0,0,0,Stable,Stable,1.782,1.168,1.168,2.462,inexpert
14,1671024595304,14/12/2022 13:29:55,1671024595236,0,14/12/2022 13:29:55,109680,33,task-qrxs,repeat-7g8d#1->-repeat-38fk#1->-repeat-qjz7#1->-repeat-5t6i#1,25951528,BLIND,7659497,NaN,complete,NaN,NaN,computer,Desktop or Laptop,Mac OS 10.15.7,Safari 14.1.2,1440x900,1440x820,End of Day 1,SLS,89,A,Pass,End of Day 1,Pass,NaN,NaN,NaN,Pass,NaN,Pass,NaN,schedule_B,schedule_B,4,2,1,Screen 1,Zone1,continue_button,896,NaN,NaN,,NaN,0,1,0,NaN,NaN,NaN,NaN,NaN,trial_left,blueBox.png,greenBox.png,blueBox.png,al2_uncon.png,4,3,NaN,NaN,0.85,0.15,1,0,0,0,Stable,Stable,1.983,1.181,0.538,1.588,inexpert
15,1671024596302,14/12/2022 13:29:56,1671024596226,0,14/12/2022 13:29:56,109680,33,task-qrxs,repeat-7g8d#1->-repeat-38fk#1->-repeat-qjz7#1->-repeat-5t6i#1,25951528,BLIND,7659497,NaN,complete,NaN,NaN,computer,Desktop or Laptop,Mac OS 10.15.7,Safari 14.1.2,1440x900,1440x820,End of Day 1,SLS,89,A,Pass,End of Day 1,Pass,NaN,NaN,NaN,Pass,NaN,Pass,NaN,schedule_B,schedule_B,4,2,2,individual,Zone4,timelimit_screen,1000,NaN,NaN,,NaN,0,1,0,NaN,NaN,1,NaN,NaN,trial_left,blueBox.png,greenBox.png,blueBox.png,al2_uncon.png,4,3,NaN,NaN,0.85,0.15,1,0,0,0,Stable,Stable,1.983,1.181,0.538,1.588,inexpert
16,1671024596877,14/12/2022 13:29:56,1671024596805,0,14/12/2022 13:29:56,109680,33,task-qrxs,repeat-7g8d#1->-repeat-38fk#1->-repeat-qjz7#1->-repeat-5t6i#1,25951528,BLIND,7659497,NaN,complete,NaN,NaN,computer,Desktop or Laptop,Mac OS 10.15.7,Safari 14.1.2,1440x900,1440x820,End of Day 1,SLS,89,A,Pass,End of Day 1,Pass,NaN,NaN,NaN,Pass,NaN,Pass,NaN,schedule_B,schedule_B,4,2,3,offer,Zone2,response_button_image,568,NaN,NaN,greenBox.png,1,0,1,0,NaN,NaN,NaN,NaN,NaN,trial_left,blueBox.png,greenBox.png,blueBox.png,al2_uncon.png,4,3,NaN,NaN,0.85,0.15,1,0,0,0,Stable,Stable,1.983,1.181,0.538,1.588,inexpert
17,1671024598862,14/12/2022 13:29:58,1671024598792,0,14/12/2022 13:29:58,109680,33,task-qrxs,repeat-7g8d#1->-repeat-38fk#1->-repeat-qjz7#1->-repeat-5t6i#1,25951528,BLIND,7659497,NaN,complete,NaN,NaN,computer,Desktop or Laptop,Mac OS 10.15.7,Safari 14.1.2,1440x900,1440x820,End of Day 1,SLS,89,A,Pass,End of Day 1,Pass,NaN,NaN,NaN,Pass,NaN,Pass,NaN,schedule_B,schedule_B,4,2,5,feedback_r,Zone7,timelimit_screen,1999,NaN,NaN,,NaN,0,1,0,NaN,NaN,1,NaN,NaN,trial_left,blueBox.png,greenBox.png,blueBox.png,al2_uncon.png,4,3,NaN,NaN,0.85,0.15,1,0,0,0,Stable,Stable,1.983,1.181,0.538,1.588,inexpert
18,1671024599003,14/12/2022 13:29:59,1671024598942,0,14/12/2022 13:29:58,109680,33,task-qrxs,repeat-7g8d#1->-repeat-38fk#1->-repeat-qjz7#1->-repeat-5t6i#1,25951528,BLIND,7659497,NaN,complete,NaN,NaN,computer,Desktop or Laptop,Mac OS 10.15.7,Safari 14.1.2,1440x900,1440x820,End of Day 1,SLS,89,A,Pass,End of Day 1,Pass,NaN,NaN,NaN,Pass,NaN,Pass,NaN,schedule_B,schedule_B,4,2,6,end,Zone1,timelimit_screen,151,NaN,NaN,,NaN,0,1,0,NaN,NaN,1,NaN,NaN,trial_left,blueBox.png,greenBox.png,blueBox.png,al2_uncon.png,4,3,NaN,NaN,0.85,0.15,1,0,0,0,Stable,Stable,1.983,1.181,0.538,1.588,inexpert
19,1671024600111,14/12/2022 13:30:00,1671024600015,0,14/12/2022 13:30:00,109680,33,task-qrxs,repeat-7g8d#1->-repeat-38fk#1->-repeat-qjz7#1->-repeat-5t6i#1,25951528,BLIND,7659497,NaN,complete,NaN,NaN,computer,Desktop or Laptop,Mac OS 10.15.7,Safari 14.1.2,1440x900,1440x820,End of Day 1,SLS,89,A,Pass,End of Day 1,Pass,NaN,NaN,NaN,Pass,NaN,Pass,NaN,schedule_B,schedule_B,5,2,1,Screen 1,Zone1,continue_button,1064,NaN,NaN,,NaN,0,1,0,NaN,NaN,NaN,NaN,NaN,trial_right,greenBox.png,greenBox.png,blueBox.png,al2_uncon.png,5,4,NaN,NaN,0.85,0.15,0,0,1,0,Stable,Stable,1.529,0.891,1.004,1,inexpert
20,1671024601079,14/12/2022 13:30:01,1671024601010,0,14/12/2022 13:30:01,109680,33,task-qrxs,repeat-7g8d#1->-repeat-38fk#1->-repeat-qjz7#1->-repeat-5t6i#1,25951528,BLIND,7659497,NaN,complete,NaN,NaN,computer,Desktop or Laptop,Mac OS 10.15.7,Safari 14.1.2,1440x900,1440x820,End of Day 1,SLS,89,A,Pass,End of Day 1,Pass,NaN,NaN,NaN,Pass,NaN,Pass,NaN,schedule_B,schedule_B,5,2,2,individual,Zone4,timelimit_screen,1000,NaN,NaN,,NaN,0,1,0,NaN,NaN,1,NaN,NaN,trial_right,greenBox.png,greenBox.png,blueBox.png,al2_uncon.png,5,4,NaN,NaN,0.85,0.15,0,0,1,0,Stable,Stable,1.529,0.891,1.004,1,inexpert
21,1671024601778,14/12/2022 13:30:01,1671024601713,0,14/12/2022 13:30:01,109680,33,task-qrxs,repeat-7g8d#1->-repeat-38fk#1->-repeat-qjz7#1->-repeat-5t6i#1,25951528,BLIND,7659497,NaN,complete,NaN,NaN,computer,Desktop or Laptop,Mac OS 10.15.7,Safari 14.1.2,1440x900,1440x820,End of Day 1,SLS,89,A,Pass,End of Day 1,Pass,NaN,NaN,NaN,Pass,NaN,Pass,NaN,schedule_B,schedule_B,5,2,3,offer,Zone2,response_button_image,693,NaN,NaN,greenBox.png,1,1,0,0,NaN,NaN,NaN,NaN,NaN,trial_right,greenBox.png,greenBox.png,blueBox.png,al2_uncon.png,5,4,NaN,NaN,0.85,0.15,0,0,1,0,Stable,Stable,1.529,0.891,1.004,1,inexpert
22,1671024603787,14/12/2022 13:30:03,1671024603709,0,14/12/2022 13:30:03,109680,33,task-qrxs,repeat-7g8d#1->-repeat-38fk#1->-repeat-qjz7#1->-repeat-5t6i#1,25951528,BLIND,7659497,NaN,complete,NaN,NaN,computer,Desktop or Laptop,Mac OS 10.15.7,Safari 14.1.2,1440x900,1440x820,End of Day 1,SLS,89,A,Pass,End of Day 1,Pass,NaN,NaN,NaN,Pass,NaN,Pass,NaN,schedule_B,schedule_B,5,2,5,feedback_r,Zone7,timelimit_screen,2000,NaN,NaN,,NaN,0,1,0,NaN,NaN,1,NaN,NaN,trial_right,greenBox.png,greenBox.png,blueBox.png,al2_uncon.png,5,4,NaN,NaN,0.85,0.15,0,0,1,0,Stable,Stable,1.529,0.891,1.004,1,inexpert
23,1671024603908,14/12/2022 13:30:03,1671024603859,0,14/12/2022 13:30:03,109680,33,task-qrxs,repeat-7g8d#1->-repeat-38fk#1->-repeat-qjz7#1->-repeat-5t6i#1,25951528,BLIND,7659497,NaN,complete,NaN,NaN,computer,Desktop or Laptop,Mac OS 10.15.7,Safari 14.1.2,1440x900,1440x820,End of Day 1,SLS,89,A,Pass,End of Day 1,Pass,NaN,NaN,NaN,Pass,NaN,Pass,NaN,schedule_B,schedule_B,5,2,6,end,Zone1,timelimit_screen,150,NaN,NaN,,NaN,0,1,0,NaN,NaN,1,NaN,NaN,trial_right,greenBox.png,greenBox.png,blueBox.png,al2_uncon.png,5,4,NaN,NaN,0.85,0.15,0,0,1,0,Stable,Stable,1.529,0.891,1.004,1,inexpert
24,1671024604744,14/12/2022 13:30:04,1671024604674,0,14/12/2022 13:30:04,109680,33,task-qrxs,repeat-7g8d#1->-repeat-38fk#1->-repeat-qjz7#1->-repeat-5t6i#1,25951528,BLIND,7659497,NaN,complete,NaN,NaN,computer,Desktop or Laptop,Mac OS 10.15.7,Safari 14.1.2,1440x900,1440x820,End of Day 1,SLS,89,A,Pass,End of Day 1,Pass,NaN,NaN,NaN,Pass,NaN,Pass,NaN,schedule_B,schedule_B,6,3,1,Screen 1,Zone1,continue_button,803.999999999996,NaN,NaN,,NaN,0,1,0,NaN,NaN,NaN,NaN,NaN,trial_left,blueBox.png,greenBox.png,blueBox.png,al2_uncon.png,6,5,NaN,NaN,0.85,0.15,1,0,0,0,Stable,Stable,1.832,1.118,0.752,1.79,inexpert
25,1671024605729,14/12/2022 13:30:05,1671024605659,0,14/12/2022 13:30:05,109680,33,task-qrxs,repeat-7g8d#1->-repeat-38fk#1->-repeat-qjz7#1->-repeat-5t6i#1,25951528,BLIND,7659497,NaN,complete,NaN,NaN,computer,Desktop or Laptop,Mac OS 10.15.7,Safari 14.1.2,1440x900,1440x820,End of Day 1,SLS,89,A,Pass,End of Day 1,Pass,NaN,NaN,NaN,Pass,NaN,Pass,NaN,schedule_B,schedule_B,6,3,2,individual,Zone4,timelimit_screen,1000,NaN,NaN,,NaN,0,1,0,NaN,NaN,1,NaN,NaN,trial_left,blueBox.png,greenBox.png,blueBox.png,al2_uncon.png,6,5,NaN,NaN,0.85,0.15,1,0,0,0,Stable,Stable,1.832,1.118,0.752,1.79,inexpert
26,1671024606474,14/12/2022 13:30:06,1671024606420,0,14/12/2022 13:30:06,109680,33,task-qrxs,repeat-7g8d#1->-repeat-38fk#1->-repeat-qjz7#1->-repeat-5t6i#1,25951528,BLIND,7659497,NaN,complete,NaN,NaN,computer,Desktop or Laptop,Mac OS 10.15.7,Safari 14.1.2,1440x900,1440x820,End of Day 1,SLS,89,A,Pass,End of Day 1,Pass,NaN,NaN,NaN,Pass,NaN,Pass,NaN,schedule_B,schedule_B,6,3,3,offer,Zone2,response_button_image,755,NaN,NaN,greenBox.png,1,0,1,0,NaN,NaN,NaN,NaN,NaN,trial_left,blueBox.png,greenBox.png,blueBox.png,al2_uncon.png,6,5,NaN,NaN,0.85,0.15,1,0,0,0,Stable,Stable,1.832,1.118,0.752,1.79,inexpert
27,1671024608485,14/12/2022 13:30:08,1671024608409,0,14/12/2022 13:30:08,109680,33,task-qrxs,repeat-7g8d#1->-repeat-38fk#1->-repeat-qjz7#1->-repeat-5t6i#1,25951528,BLIND,7659497,NaN,complete,NaN,NaN,computer,Desktop or Laptop,Mac OS 10.15.7,Safari 14.1.2,1440x900,1440x820,End of Day 1,SLS,89,A,Pass,End of Day 1,Pass,NaN,NaN,NaN,Pass,NaN,Pass,NaN,schedule_B,schedule_B,6,3,5,feedback_r,Zone7,timelimit_screen,2000,NaN,NaN,,NaN,0,1,0,NaN,NaN,1,NaN,NaN,trial_left,blueBox.png,greenBox.png,blueBox.png,al2_uncon.png,6,5,NaN,NaN,0.85,0.15,1,0,0,0,Stable,Stable,1.832,1.118,0.752,1.79,inexpert
28,1671024608613,14/12/2022 13:30:08,1671024608559,0,14/12/2022 13:30:08,109680,33,task-qrxs,repeat-7g8d#1->-repeat-38fk#1->-repeat-qjz7#1->-repeat-5t6i#1,25951528,BLIND,7659497,NaN,complete,NaN,NaN,computer,Desktop or Laptop,Mac OS 10.15.7,Safari 14.1.2,1440x900,1440x820,End of Day 1,SLS,89,A,Pass,End of Day 1,Pass,NaN,NaN,NaN,Pass,NaN,Pass,NaN,schedule_B,schedule_B,6,3,6,end,Zone1,timelimit_screen,150,NaN,NaN,,NaN,0,1,0,NaN,NaN,1,NaN,NaN,trial_left,blueBox.png,greenBox.png,blueBox.png,al2_uncon.png,6,5,NaN,NaN,0.85,0.15,1,0,0,0,Stable,Stable,1.832,1.118,0.752,1.79,inexpert
29,1671024609770,14/12/2022 13:30:09,1671024609703,0,14/12/2022 13:30:09,109680,33,task-qrxs,repeat-7g8d#1->-repeat-38fk#1->-repeat-qjz7#1->-repeat-5t6i#1,25951528,BLIND,7659497,NaN,complete,NaN,NaN,computer,Desktop or Laptop,Mac OS 10.15.7,Safari 14.1.2,1440x900,1440x820,End of Day 1,SLS,89,A,Pass,End of Day 1,Pass,NaN,NaN,NaN,Pass,NaN,Pass,NaN,schedule_B,schedule_B,7,3,1,Screen 1,Zone1,continue_button,1127,NaN,NaN,,NaN,0,1,0,NaN,NaN,NaN,NaN,NaN,trial_right,greenBox.png,greenBox.png,blueBox.png,al2_uncon.png,7,6,NaN,NaN,0.15,0.15,0,0,1,0,Stable,Stable,3.294,0.815,1.282,2.664,inexpert
30,1671024610763,14/12/2022 13:30:10,1671024610693,0,14/12/2022 13:30:10,109680,33,task-qrxs,repeat-7g8d#1->-repeat-38fk#1->-repeat-qjz7#1->-repeat-5t6i#1,25951528,BLIND,7659497,NaN,complete,NaN,NaN,computer,Desktop or Laptop,Mac OS 10.15.7,Safari 14.1.2,1440x900,1440x820,End of Day 1,SLS,89,A,Pass,End of Day 1,Pass,NaN,NaN,NaN,Pass,NaN,Pass,NaN,schedule_B,schedule_B,7,3,2,individual,Zone4,timelimit_screen,1000,NaN,NaN,,NaN,0,1,0,NaN,NaN,1,NaN,NaN,trial_right,greenBox.png,greenBox.png,blueBox.png,al2_uncon.png,7,6,NaN,NaN,0.15,0.15,0,0,1,0,Stable,Stable,3.294,0.815,1.282,2.664,inexpert
31,1671024611545,14/12/2022 13:30:11,1671024611465,0,14/12/2022 13:30:11,109680,33,task-qrxs,repeat-7g8d#1->-repeat-38fk#1->-repeat-qjz7#1->-repeat-5t6i#1,25951528,BLIND,7659497,NaN,complete,NaN,NaN,computer,Desktop or Laptop,Mac OS 10.15.7,Safari 14.1.2,1440x900,1440x820,End of Day 1,SLS,89,A,Pass,End of Day 1,Pass,NaN,NaN,NaN,Pass,NaN,Pass,NaN,schedule_B,schedule_B,7,3,3,offer,Zone2,response_button_image,762,NaN,NaN,greenBox.png,1,1,0,0,NaN,NaN,NaN,NaN,NaN,trial_right,greenBox.png,greenBox.png,blueBox.png,al2_uncon.png,7,6,NaN,NaN,0.15,0.15,0,0,1,0,Stable,Stable,3.294,0.815,1.282,2.664,inexpert
32,1671024613535,14/12/2022 13:30:13,1671024613459,0,14/12/2022 13:30:13,109680,33,task-qrxs,repeat-7g8d#1->-repeat-38fk#1->-repeat-qjz7#1->-repeat-5t6i#1,25951528,BLIND,7659497,NaN,complete,NaN,NaN,computer,Desktop or Laptop,Mac OS 10.15.7,Safari 14.1.2,1440x900,1440x820,End of Day 1,SLS,89,A,Pass,End of Day 1,Pass,NaN,NaN,NaN,Pass,NaN,Pass,NaN,schedule_B,schedule_B,7,3,5,feedback_r,Zone7,timelimit_screen,2001,NaN,NaN,,NaN,0,1,0,NaN,NaN,1,NaN,NaN,trial_right,greenBox.png,greenBox.png,blueBox.png,al2_uncon.png,7,6,NaN,NaN,0.15,0.15,0,0,1,0,Stable,Stable,3.294,0.815,1.282,2.664,inexpert
33,1671024613672,14/12/2022 13:30:13,1671024613609,0,14/12/2022 13:30:13,109680,33,task-qrxs,repeat-7g8d#1->-repeat-38fk#1->-repeat-qjz7#1->-repeat-5t6i#1,25951528,BLIND,7659497,NaN,complete,NaN,NaN,computer,Desktop or Laptop,Mac OS 10.15.7,Safari 14.1.2,1440x900,1440x820,End of Day 1,SLS,89,A,Pass,End of Day 1,Pass,NaN,NaN,NaN,Pass,NaN,Pass,NaN,schedule_B,schedule_B,7,3,6,end,Zone1,timelimit_screen,149,NaN,NaN,,NaN,0,1,0,NaN,NaN,1,NaN,NaN,trial_right,greenBox.png,greenBox.png,blueBox.png,al2_uncon.png,7,6,NaN,NaN,0.15,0.15,0,0,1,0,Stable,Stable,3.294,0.815,1.282,2.664,inexpert
34,1671024614475,14/12/2022 13:30:14,1671024614402,0,14/12/2022 13:30:14,109680,33,task-qrxs,repeat-7g8d#1->-repeat-38fk#1->-repeat-qjz7#1->-repeat-5t6i#1,25951528,BLIND,7659497,NaN,complete,NaN,NaN,computer,Desktop or Laptop,Mac OS 10.15.7,Safari 14.1.2,1440x900,1440x820,End of Day 1,SLS,89,A,Pass,End of Day 1,Pass,NaN,NaN,NaN,Pass,NaN,Pass,NaN,schedule_B,schedule_B,8,4,1,Screen 1,Zone1,continue_button,780,NaN,NaN,,NaN,0,1,0,NaN,NaN,NaN,NaN,NaN,trial_left,greenBox.png,blueBox.png,greenBox.png,al2_uncon.png,8,7,NaN,NaN,0.15,0.15,0,0,1,1,Stable,Stable,3.269,1.37,1.786,2.328,inexpert
35,1671024615461,14/12/2022 13:30:15,1671024615393,0,14/12/2022 13:30:15,109680,33,task-qrxs,repeat-7g8d#1->-repeat-38fk#1->-repeat-qjz7#1->-repeat-5t6i#1,25951528,BLIND,7659497,NaN,complete,NaN,NaN,computer,Desktop or Laptop,Mac OS 10.15.7,Safari 14.1.2,1440x900,1440x820,End of Day 1,SLS,89,A,Pass,End of Day 1,Pass,NaN,NaN,NaN,Pass,NaN,Pass,NaN,schedule_B,schedule_B,8,4,2,individual,Zone4,timelimit_screen,1000,NaN,NaN,,NaN,0,1,0,NaN,NaN,1,NaN,NaN,trial_left,greenBox.png,blueBox.png,greenBox.png,al2_uncon.png,8,7,NaN,NaN,0.15,0.15,0,0,1,1,Stable,Stable,3.269,1.37,1.786,2.328,inexpert
36,1671024616386,14/12/2022 13:30:16,1671024616307,0,14/12/2022 13:30:16,109680,33,task-qrxs,repeat-7g8d#1->-repeat-38fk#1->-repeat-qjz7#1->-repeat-5t6i#1,25951528,BLIND,7659497,NaN,complete,NaN,NaN,computer,Desktop or Laptop,Mac OS 10.15.7,Safari 14.1.2,1440x900,1440x820,End of Day 1,SLS,89,A,Pass,End of Day 1,Pass,NaN,NaN,NaN,Pass,NaN,Pass,NaN,schedule_B,schedule_B,8,4,3,offer,bluebox,response_button_image,904,NaN,NaN,greenBox.png,1,1,0,0,NaN,NaN,NaN,NaN,NaN,trial_left,greenBox.png,blueBox.png,greenBox.png,al2_uncon.png,8,7,NaN,NaN,0.15,0.15,0,0,1,1,Stable,Stable,3.269,1.37,1.786,2.328,inexpert
37,1671024618355,14/12/2022 13:30:18,1671024618292,0,14/12/2022 13:30:18,109680,33,task-qrxs,repeat-7g8d#1->-repeat-38fk#1->-repeat-qjz7#1->-repeat-5t6i#1,25951528,BLIND,7659497,NaN,complete,NaN,NaN,computer,Desktop or Laptop,Mac OS 10.15.7,Safari 14.1.2,1440x900,1440x820,End of Day 1,SLS,89,A,Pass,End of Day 1,Pass,NaN,NaN,NaN,Pass,NaN,Pass,NaN,schedule_B,schedule_B,8,4,5,feedback_r,Zone7,timelimit_screen,1999,NaN,NaN,,NaN,0,1,0,NaN,NaN,1,NaN,NaN,trial_left,greenBox.png,blueBox.png,greenBox.png,al2_uncon.png,8,7,NaN,NaN,0.15,0.15,0,0,1,1,Stable,Stable,3.269,1.37,1.786,2.328,inexpert
38,1671024618502,14/12/2022 13:30:18,1671024618442,0,14/12/2022 13:30:18,109680,33,task-qrxs,repeat-7g8d#1->-repeat-38fk#1->-repeat-qjz7#1->-repeat-5t6i#1,25951528,BLIND,7659497,NaN,complete,NaN,NaN,computer,Desktop or Laptop,Mac OS 10.15.7,Safari 14.1.2,1440x900,1440x820,End of Day 1,SLS,89,A,Pass,End of Day 1,Pass,NaN,NaN,NaN,Pass,NaN,Pass,NaN,schedule_B,schedule_B,8,4,6,end,Zone1,timelimit_screen,151,NaN,NaN,,NaN,0,1,0,NaN,NaN,1,NaN,NaN,trial_left,greenBox.png,blueBox.png,greenBox.png,al2_uncon.png,8,7,NaN,NaN,0.15,0.15,0,0,1,1,Stable,Stable,3.269,1.37,1.786,2.328,inexpert
39,1671024619255,14/12/2022 13:30:19,1671024619198,0,14/12/2022 13:30:19,109680,33,task-qrxs,repeat-7g8d#1->-repeat-38fk#1->-repeat-qjz7#1->-repeat-5t6i#1,25951528,BLIND,7659497,NaN,complete,NaN,NaN,computer,Desktop or Laptop,Mac OS 10.15.7,Safari 14.1.2,1440x900,1440x820,End of Day 1,SLS,89,A,Pass,End of Day 1,Pass,NaN,NaN,NaN,Pass,NaN,Pass,NaN,schedule_B,schedule_B,9,4,1,Screen 1,Zone1,continue_button,742,NaN,NaN,,NaN,0,1,0,NaN,NaN,NaN,NaN,NaN,trial_right,blueBox.png,blueBox.png,greenBox.png,al2_uncon.png,9,8,NaN,NaN,0.15,0.15,1,0,0,1,Stable,Stable,3.975,0.576,1.256,1.807,inexpert
40,1671024620249,14/12/2022 13:30:20,1671024620193,0,14/12/2022 13:30:20,109680,33,task-qrxs,repeat-7g8d#1->-repeat-38fk#1->-repeat-qjz7#1->-repeat-5t6i#1,25951528,BLIND,7659497,NaN,complete,NaN,NaN,computer,Desktop or Laptop,Mac OS 10.15.7,Safari 14.1.2,1440x900,1440x820,End of Day 1,SLS,89,A,Pass,End of Day 1,Pass,NaN,NaN,NaN,Pass,NaN,Pass,NaN,schedule_B,schedule_B,9,4,2,individual,Zone4,timelimit_screen,1000,NaN,NaN,,NaN,0,1,0,NaN,NaN,1,NaN,NaN,trial_right,blueBox.png,blueBox.png,greenBox.png,al2_uncon.png,9,8,NaN,NaN,0.15,0.15,1,0,0,1,Stable,Stable,3.975,0.576,1.256,1.807,inexpert
41,1671024621127,14/12/2022 13:30:21,1671024621055,0,14/12/2022 13:30:21,109680,33,task-qrxs,repeat-7g8d#1->-repeat-38fk#1->-repeat-qjz7#1->-repeat-5t6i#1,25951528,BLIND,7659497,NaN,complete,NaN,NaN,computer,Desktop or Laptop,Mac OS 10.15.7,Safari 14.1.2,1440x900,1440x820,End of Day 1,SLS,89,A,Pass,End of Day 1,Pass,NaN,NaN,NaN,Pass,NaN,Pass,NaN,schedule_B,schedule_B,9,4,3,offer,Zone3,response_button_image,855.000000000007,NaN,NaN,greenBox.png,1,0,1,0,NaN,NaN,NaN,NaN,NaN,trial_right,blueBox.png,blueBox.png,greenBox.png,al2_uncon.png,9,8,NaN,NaN,0.15,0.15,1,0,0,1,Stable,Stable,3.975,0.576,1.256,1.807,inexpert
42,1671024623104,14/12/2022 13:30:23,1671024623043,0,14/12/2022 13:30:23,109680,33,task-qrxs,repeat-7g8d#1->-repeat-38fk#1->-repeat-qjz7#1->-repeat-5t6i#1,25951528,BLIND,7659497,NaN,complete,NaN,NaN,computer,Desktop or Laptop,Mac OS 10.15.7,Safari 14.1.2,1440x900,1440x820,End of Day 1,SLS,89,A,Pass,End of Day 1,Pass,NaN,NaN,NaN,Pass,NaN,Pass,NaN,schedule_B,schedule_B,9,4,5,feedback_r,Zone7,timelimit_screen,2000,NaN,NaN,,NaN,0,1,0,NaN,NaN,1,NaN,NaN,trial_right,blueBox.png,blueBox.png,greenBox.png,al2_uncon.png,9,8,NaN,NaN,0.15,0.15,1,0,0,1,Stable,Stable,3.975,0.576,1.256,1.807,inexpert
43,1671024623259,14/12/2022 13:30:23,1671024623192,0,14/12/2022 13:30:23,109680,33,task-qrxs,repeat-7g8d#1->-repeat-38fk#1->-repeat-qjz7#1->-repeat-5t6i#1,25951528,BLIND,7659497,NaN,complete,NaN,NaN,computer,Desktop or Laptop,Mac OS 10.15.7,Safari 14.1.2,1440x900,1440x820,End of Day 1,SLS,89,A,Pass,End of Day 1,Pass,NaN,NaN,NaN,Pass,NaN,Pass,NaN,schedule_B,schedule_B,9,4,6,end,Zone1,timelimit_screen,150,NaN,NaN,,NaN,0,1,0,NaN,NaN,1,NaN,NaN,trial_right,blueBox.png,blueBox.png,greenBox.png,al2_uncon.png,9,8,NaN,NaN,0.15,0.15,1,0,0,1,Stable,Stable,3.975,0.576,1.256,1.807,inexpert
44,1671024624109,14/12/2022 13:30:24,1671024624035,0,14/12/2022 13:30:24,109680,33,task-qrxs,repeat-7g8d#1->-repeat-38fk#1->-repeat-qjz7#1->-repeat-5t6i#1,25951528,BLIND,7659497,NaN,complete,NaN,NaN,computer,Desktop or Laptop,Mac OS 10.15.7,Safari 14.1.2,1440x900,1440x820,End of Day 1,SLS,89,A,Pass,End of Day 1,Pass,NaN,NaN,NaN,Pass,NaN,Pass,NaN,schedule_B,schedule_B,10,5,1,Screen 1,Zone1,continue_button,828,NaN,NaN,,NaN,0,1,0,NaN,NaN,NaN,NaN,NaN,trial_left,greenBox.png,blueBox.png,greenBox.png,al2_uncon.png,10,9,NaN,NaN,0.15,0.15,0,0,1,1,Stable,Stable,3.798,1.055,1.559,2.042,inexpert
45,1671024625100,14/12/2022 13:30:25,1671024625026,0,14/12/2022 13:30:25,109680,33,task-qrxs,repeat-7g8d#1->-repeat-38fk#1->-repeat-qjz7#1->-repeat-5t6i#1,25951528,BLIND,7659497,NaN,complete,NaN,NaN,computer,Desktop or Laptop,Mac OS 10.15.7,Safari 14.1.2,1440x900,1440x820,End of Day 1,SLS,89,A,Pass,End of Day 1,Pass,NaN,NaN,NaN,Pass,NaN,Pass,NaN,schedule_B,schedule_B,10,5,2,individual,Zone4,timelimit_screen,1000,NaN,NaN,,NaN,0,1,0,NaN,NaN,1,NaN,NaN,trial_left,greenBox.png,blueBox.png,greenBox.png,al2_uncon.png,10,9,NaN,NaN,0.15,0.15,0,0,1,1,Stable,Stable,3.798,1.055,1.559,2.042,inexpert
46,1671024625865,14/12/2022 13:30:25,1671024625796,0,14/12/2022 13:30:25,109680,33,task-qrxs,repeat-7g8d#1->-repeat-38fk#1->-repeat-qjz7#1->-repeat-5t6i#1,25951528,BLIND,7659497,NaN,complete,NaN,NaN,computer,Desktop or Laptop,Mac OS 10.15.7,Safari 14.1.2,1440x900,1440x820,End of Day 1,SLS,89,A,Pass,End of Day 1,Pass,NaN,NaN,NaN,Pass,NaN,Pass,NaN,schedule_B,schedule_B,10,5,3,offer,Zone2,response_button_image,760.000000000007,NaN,NaN,blueBox.png,1,0,1,0,NaN,NaN,NaN,NaN,NaN,trial_left,greenBox.png,blueBox.png,greenBox.png,al2_uncon.png,10,9,NaN,NaN,0.15,0.15,0,0,1,1,Stable,Stable,3.798,1.055,1.559,2.042,inexpert
47,1671024627859,14/12/2022 13:30:27,1671024627792,0,14/12/2022 13:30:27,109680,33,task-qrxs,repeat-7g8d#1->-repeat-38fk#1->-repeat-qjz7#1->-repeat-5t6i#1,25951528,BLIND,7659497,NaN,complete,NaN,NaN,computer,Desktop or Laptop,Mac OS 10.15.7,Safari 14.1.2,1440x900,1440x820,End of Day 1,SLS,89,A,Pass,End of Day 1,Pass,NaN,NaN,NaN,Pass,NaN,Pass,NaN,schedule_B,schedule_B,10,5,5,feedback_r,Zone7,timelimit_screen,2000,NaN,NaN,,NaN,0,1,0,NaN,NaN,1,NaN,NaN,trial_left,greenBox.png,blueBox.png,greenBox.png,al2_uncon.png,10,9,NaN,NaN,0.15,0.15,0,0,1,1,Stable,Stable,3.798,1.055,1.559,2.042,inexpert
48,1671024628011,14/12/2022 13:30:28,1671024627942,0,14/12/2022 13:30:27,109680,33,task-qrxs,repeat-7g8d#1->-repeat-38fk#1->-repeat-qjz7#1->-repeat-5t6i#1,25951528,BLIND,7659497,NaN,complete,NaN,NaN,computer,Desktop or Laptop,Mac OS 10.15.7,Safari 14.1.2,1440x900,1440x820,End of Day 1,SLS,89,A,Pass,End of Day 1,Pass,NaN,NaN,NaN,Pass,NaN,Pass,NaN,schedule_B,schedule_B,10,5,6,end,Zone1,timelimit_screen,150,NaN,NaN,,NaN,0,1,0,NaN,NaN,1,NaN,NaN,trial_left,greenBox.png,blueBox.png,greenBox.png,al2_uncon.png,10,9,NaN,NaN,0.15,0.15,0,0,1,1,Stable,Stable,3.798,1.055,1.559,2.042,inexpert
49,1671024628880,14/12/2022 13:30:28,1671024628790,0,14/12/2022 13:30:28,109680,33,task-qrxs,repeat-7g8d#1->-repeat-38fk#1->-repeat-qjz7#1->-repeat-5t6i#1,25951528,BLIND,7659497,NaN,complete,NaN,NaN,computer,Desktop or Laptop,Mac OS 10.15.7,Safari 14.1.2,1440x900,1440x820,End of Day 1,SLS,89,A,Pass,End of Day 1,Pass,NaN,NaN,NaN,Pass,NaN,Pass,NaN,schedule_B,schedule_B,11,5,1,Screen 1,Zone1,continue_button,835.000000000007,NaN,NaN,,NaN,0,1,0,NaN,NaN,NaN,NaN,NaN,trial_right,greenBox.png,greenBox.png,blueBox.png,al2_uncon.png,21,10,NaN,NaN,0.15,0.15,0,0,1,0,Stable,Stable,1.857,0.5,1.294,2.916,inexpert
50,1671024629993,14/12/2022 13:30:29,1671024629776,0,14/12/2022 13:30:29,109680,33,task-qrxs,repeat-7g8d#1->-repeat-38fk#1->-repeat-qjz7#1->-repeat-5t6i#1,25951528,BLIND,7659497,NaN,complete,NaN,NaN,computer,Desktop or Laptop,Mac OS 10.15.7,Safari 14.1.2,1440x900,1440x820,End of Day 1,SLS,89,A,Pass,End of Day 1,Pass,NaN,NaN,NaN,Pass,NaN,Pass,NaN,schedule_B,schedule_B,11,5,2,individual,Zone4,timelimit_screen,999,NaN,NaN,,NaN,0,1,0,NaN,NaN,1,NaN,NaN,trial_right,greenBox.png,greenBox.png,blueBox.png,al2_uncon.png,21,10,NaN,NaN,0.15,0.15,0,0,1,0,Stable,Stable,1.857,0.5,1.294,2.916,inexpert
51,1671024631030,14/12/2022 13:30:31,1671024630959,0,14/12/2022 13:30:30,109680,33,task-qrxs,repeat-7g8d#1->-repeat-38fk#1->-repeat-qjz7#1->-repeat-5t6i#1,25951528,BLIND,7659497,NaN,complete,NaN,NaN,computer,Desktop or Laptop,Mac OS 10.15.7,Safari 14.1.2,1440x900,1440x820,End of Day 1,SLS,89,A,Pass,End of Day 1,Pass,NaN,NaN,NaN,Pass,NaN,Pass,NaN,schedule_B,schedule_B,11,5,3,offer,Zone3,response_button_image,1175,NaN,NaN,blueBox.png,1,0,1,0,NaN,NaN,NaN,NaN,NaN,trial_right,greenBox.png,greenBox.png,blueBox.png,al2_uncon.png,21,10,NaN,NaN,0.15,0.15,0,0,1,0,Stable,Stable,1.857,0.5,1.294,2.916,inexpert
52,1671024633022,14/12/2022 13:30:33,1671024632943,0,14/12/2022 13:30:32,109680,33,task-qrxs,repeat-7g8d#1->-repeat-38fk#1->-repeat-qjz7#1->-repeat-5t6i#1,25951528,BLIND,7659497,NaN,complete,NaN,NaN,computer,Desktop or Laptop,Mac OS 10.15.7,Safari 14.1.2,1440x900,1440x820,End of Day 1,SLS,89,A,Pass,End of Day 1,Pass,NaN,NaN,NaN,Pass,NaN,Pass,NaN,schedule_B,schedule_B,11,5,5,feedback_r,Zone7,timelimit_screen,2000,NaN,NaN,,NaN,0,1,0,NaN,NaN,1,NaN,NaN,trial_right,greenBox.png,greenBox.png,blueBox.png,al2_uncon.png,21,10,NaN,NaN,0.15,0.15,0,0,1,0,Stable,Stable,1.857,0.5,1.294,2.916,inexpert
53,1671024633149,14/12/2022 13:30:33,1671024633092,0,14/12/2022 13:30:33,109680,33,task-qrxs,repeat-7g8d#1->-repeat-38fk#1->-repeat-qjz7#1->-repeat-5t6i#1,25951528,BLIND,7659497,NaN,complete,NaN,NaN,computer,Desktop or Laptop,Mac OS 10.15.7,Safari 14.1.2,1440x900,1440x820,End of Day 1,SLS,89,A,Pass,End of Day 1,Pass,NaN,NaN,NaN,Pass,NaN,Pass,NaN,schedule_B,schedule_B,11,5,6,end,Zone1,timelimit_screen,150,NaN,NaN,,NaN,0,1,0,NaN,NaN,1,NaN,NaN,trial_right,greenBox.png,greenBox.png,blueBox.png,al2_uncon.png,21,10,NaN,NaN,0.15,0.15,0,0,1,0,Stable,Stable,1.857,0.5,1.294,2.916,inexpert
54,1671024634202,14/12/2022 13:30:34,1671024634139,0,14/12/2022 13:30:34,109680,33,task-qrxs,repeat-7g8d#1->-repeat-38fk#1->-repeat-qjz7#1->-repeat-5t6i#1,25951528,BLIND,7659497,NaN,complete,NaN,NaN,computer,Desktop or Laptop,Mac OS 10.15.7,Safari 14.1.2,1440x900,1440x820,End of Day 1,SLS,89,A,Pass,End of Day 1,Pass,NaN,NaN,NaN,Pass,NaN,Pass,NaN,schedule_B,schedule_B,12,6,1,Screen 1,Zone1,continue_button,1031,NaN,NaN,,NaN,0,1,0,NaN,NaN,NaN,NaN,NaN,trial_left,blueBox.png,greenBox.png,blueBox.png,al2_uncon.png,22,11,NaN,NaN,0.85,0.15,1,0,0,0,Stable,Stable,1.126,1.849,1.483,1.689,inexpert
55,1671024635196,14/12/2022 13:30:35,1671024635126,0,14/12/2022 13:30:35,109680,33,task-qrxs,repeat-7g8d#1->-repeat-38fk#1->-repeat-qjz7#1->-repeat-5t6i#1,25951528,BLIND,7659497,NaN,complete,NaN,NaN,computer,Desktop or Laptop,Mac OS 10.15.7,Safari 14.1.2,1440x900,1440x820,End of Day 1,SLS,89,A,Pass,End of Day 1,Pass,NaN,NaN,NaN,Pass,NaN,Pass,NaN,schedule_B,schedule_B,12,6,2,individual,Zone4,timelimit_screen,1000,NaN,NaN,,NaN,0,1,0,NaN,NaN,1,NaN,NaN,trial_left,blueBox.png,greenBox.png,blueBox.png,al2_uncon.png,22,11,NaN,NaN,0.85,0.15,1,0,0,0,Stable,Stable,1.126,1.849,1.483,1.689,inexpert
56,1671024636224,14/12/2022 13:30:36,1671024636165,0,14/12/2022 13:30:36,109680,33,task-qrxs,repeat-7g8d#1->-repeat-38fk#1->-repeat-qjz7#1->-repeat-5t6i#1,25951528,BLIND,7659497,NaN,complete,NaN,NaN,computer,Desktop or Laptop,Mac OS 10.15.7,Safari 14.1.2,1440x900,1440x820,End of Day 1,SLS,89,A,Pass,End of Day 1,Pass,NaN,NaN,NaN,Pass,NaN,Pass,NaN,schedule_B,schedule_B,12,6,3,offer,Zone2,response_button_image,1027.00000000001,NaN,NaN,greenBox.png,1,0,1,0,NaN,NaN,NaN,NaN,NaN,trial_left,blueBox.png,greenBox.png,blueBox.png,al2_uncon.png,22,11,NaN,NaN,0.85,0.15,1,0,0,0,Stable,Stable,1.126,1.849,1.483,1.689,inexpert
57,1671024638217,14/12/2022 13:30:38,1671024638159,0,14/12/2022 13:30:38,109680,33,task-qrxs,repeat-7g8d#1->-repeat-38fk#1->-repeat-qjz7#1->-repeat-5t6i#1,25951528,BLIND,7659497,NaN,complete,NaN,NaN,computer,Desktop or Laptop,Mac OS 10.15.7,Safari 14.1.2,1440x900,1440x820,End of Day 1,SLS,89,A,Pass,End of Day 1,Pass,NaN,NaN,NaN,Pass,NaN,Pass,NaN,schedule_B,schedule_B,12,6,5,feedback_r,Zone7,timelimit_screen,2000,NaN,NaN,,NaN,0,1,0,NaN,NaN,1,NaN,NaN,trial_left,blueBox.png,greenBox.png,blueBox.png,al2_uncon.png,22,11,NaN,NaN,0.85,0.15,1,0,0,0,Stable,Stable,1.126,1.849,1.483,1.689,inexpert
58,1671024638375,14/12/2022 13:30:38,1671024638309,0,14/12/2022 13:30:38,109680,33,task-qrxs,repeat-7g8d#1->-repeat-38fk#1->-repeat-qjz7#1->-repeat-5t6i#1,25951528,BLIND,7659497,NaN,complete,NaN,NaN,computer,Desktop or Laptop,Mac OS 10.15.7,Safari 14.1.2,1440x900,1440x820,End of Day 1,SLS,89,A,Pass,End of Day 1,Pass,NaN,NaN,NaN,Pass,NaN,Pass,NaN,schedule_B,schedule_B,12,6,6,end,Zone1,timelimit_screen,150,NaN,NaN,,NaN,0,1,0,NaN,NaN,1,NaN,NaN,trial_left,blueBox.png,greenBox.png,blueBox.png,al2_uncon.png,22,11,NaN,NaN,0.85,0.15,1,0,0,0,Stable,Stable,1.126,1.849,1.483,1.689,inexpert
59,1671024639091,14/12/2022 13:30:39,1671024639022,0,14/12/2022 13:30:39,109680,33,task-qrxs,repeat-7g8d#1->-repeat-38fk#1->-repeat-qjz7#1->-repeat-5t6i#1,25951528,BLIND,7659497,NaN,complete,NaN,NaN,computer,Desktop or Laptop,Mac OS 10.15.7,Safari 14.1.2,1440x900,1440x820,End of Day 1,SLS,89,A,Pass,End of Day 1,Pass,NaN,NaN,NaN,Pass,NaN,Pass,NaN,schedule_B,schedule_B,13,7,1,Screen 1,Zone1,continue_button,701,NaN,NaN,,NaN,0,1,0,NaN,NaN,NaN,NaN,NaN,trial_left,blueBox.png,greenBox.png,blueBox.png,al2_uncon.png,23,12,NaN,NaN,0.85,0.15,1,0,0,0,Stable,Stable,2.361,0.992,0.5,1.975,inexpert
60,1671024640079,14/12/2022 13:30:40,1671024640009,0,14/12/2022 13:30:40,109680,33,task-qrxs,repeat-7g8d#1->-repeat-38fk#1->-repeat-qjz7#1->-repeat-5t6i#1,25951528,BLIND,7659497,NaN,complete,NaN,NaN,computer,Desktop or Laptop,Mac OS 10.15.7,Safari 14.1.2,1440x900,1440x820,End of Day 1,SLS,89,A,Pass,End of Day 1,Pass,NaN,NaN,NaN,Pass,NaN,Pass,NaN,schedule_B,schedule_B,13,7,2,individual,Zone4,timelimit_screen,999,NaN,NaN,,NaN,0,1,0,NaN,NaN,1,NaN,NaN,trial_left,blueBox.png,greenBox.png,blueBox.png,al2_uncon.png,23,12,NaN,NaN,0.85,0.15,1,0,0,0,Stable,Stable,2.361,0.992,0.5,1.975,inexpert
61,1671024641923,14/12/2022 13:30:41,1671024641856,0,14/12/2022 13:30:41,109680,33,task-qrxs,repeat-7g8d#1->-repeat-38fk#1->-repeat-qjz7#1->-repeat-5t6i#1,25951528,BLIND,7659497,NaN,complete,NaN,NaN,computer,Desktop or Laptop,Mac OS 10.15.7,Safari 14.1.2,1440x900,1440x820,End of Day 1,SLS,89,A,Pass,End of Day 1,Pass,NaN,NaN,NaN,Pass,NaN,Pass,NaN,schedule_B,schedule_B,13,7,3,offer,bluebox,response_button_image,1839,NaN,NaN,blueBox.png,1,1,0,0,NaN,NaN,NaN,NaN,NaN,trial_left,blueBox.png,greenBox.png,blueBox.png,al2_uncon.png,23,12,NaN,NaN,0.85,0.15,1,0,0,0,Stable,Stable,2.361,0.992,0.5,1.975,inexpert
62,1671024643913,14/12/2022 13:30:43,1671024643843,0,14/12/2022 13:30:43,109680,33,task-qrxs,repeat-7g8d#1->-repeat-38fk#1->-repeat-qjz7#1->-repeat-5t6i#1,25951528,BLIND,7659497,NaN,complete,NaN,NaN,computer,Desktop or Laptop,Mac OS 10.15.7,Safari 14.1.2,1440x900,1440x820,End of Day 1,SLS,89,A,Pass,End of Day 1,Pass,NaN,NaN,NaN,Pass,NaN,Pass,NaN,schedule_B,schedule_B,13,7,5,feedback_r,Zone7,timelimit_screen,2000,NaN,NaN,,NaN,0,1,0,NaN,NaN,1,NaN,NaN,trial_left,blueBox.png,greenBox.png,blueBox.png,al2_uncon.png,23,12,NaN,NaN,0.85,0.15,1,0,0,0,Stable,Stable,2.361,0.992,0.5,1.975,inexpert
63,1671024644044,14/12/2022 13:30:44,1671024643992,0,14/12/2022 13:30:43,109680,33,task-qrxs,repeat-7g8d#1->-repeat-38fk#1->-repeat-qjz7#1->-repeat-5t6i#1,25951528,BLIND,7659497,NaN,complete,NaN,NaN,computer,Desktop or Laptop,Mac OS 10.15.7,Safari 14.1.2,1440x900,1440x820,End of Day 1,SLS,89,A,Pass,End of Day 1,Pass,NaN,NaN,NaN,Pass,NaN,Pass,NaN,schedule_B,schedule_B,13,7,6,end,Zone1,timelimit_screen,150,NaN,NaN,,NaN,0,1,0,NaN,NaN,1,NaN,NaN,trial_left,blueBox.png,greenBox.png,blueBox.png,al2_uncon.png,23,12,NaN,NaN,0.85,0.15,1,0,0,0,Stable,Stable,2.361,0.992,0.5,1.975,inexpert
64,1671024645303,14/12/2022 13:30:45,1671024645220,0,14/12/2022 13:30:45,109680,33,task-qrxs,repeat-7g8d#1->-repeat-38fk#1->-repeat-qjz7#1->-repeat-5t6i#1,25951528,BLIND,7659497,NaN,complete,NaN,NaN,computer,Desktop or Laptop,Mac OS 10.15.7,Safari 14.1.2,1440x900,1440x820,End of Day 1,SLS,89,A,Pass,End of Day 1,Pass,NaN,NaN,NaN,Pass,NaN,Pass,NaN,schedule_B,schedule_B,14,6,1,Screen 1,Zone1,continue_button,1213.00000000001,NaN,NaN,,NaN,0,1,0,NaN,NaN,NaN,NaN,NaN,trial_right,blueBox.png,blueBox.png,greenBox.png,al2_uncon.png,24,13,NaN,NaN,0.85,0.15,1,0,0,1,Stable,Stable,1.05,1.95,1.319,1.487,inexpert
65,1671024646278,14/12/2022 13:30:46,1671024646209,0,14/12/2022 13:30:46,109680,33,task-qrxs,repeat-7g8d#1->-repeat-38fk#1->-repeat-qjz7#1->-repeat-5t6i#1,25951528,BLIND,7659497,NaN,complete,NaN,NaN,computer,Desktop or Laptop,Mac OS 10.15.7,Safari 14.1.2,1440x900,1440x820,End of Day 1,SLS,89,A,Pass,End of Day 1,Pass,NaN,NaN,NaN,Pass,NaN,Pass,NaN,schedule_B,schedule_B,14,6,2,individual,Zone4,timelimit_screen,1000,NaN,NaN,,NaN,0,1,0,NaN,NaN,1,NaN,NaN,trial_right,blueBox.png,blueBox.png,greenBox.png,al2_uncon.png,24,13,NaN,NaN,0.85,0.15,1,0,0,1,Stable,Stable,1.05,1.95,1.319,1.487,inexpert
66,1671024647890,14/12/2022 13:30:47,1671024647821,0,14/12/2022 13:30:47,109680,33,task-qrxs,repeat-7g8d#1->-repeat-38fk#1->-repeat-qjz7#1->-repeat-5t6i#1,25951528,BLIND,7659497,NaN,complete,NaN,NaN,computer,Desktop or Laptop,Mac OS 10.15.7,Safari 14.1.2,1440x900,1440x820,End of Day 1,SLS,89,A,Pass,End of Day 1,Pass,NaN,NaN,NaN,Pass,NaN,Pass,NaN,schedule_B,schedule_B,14,6,3,offer,Zone2,response_button_image,1605.00000000001,NaN,NaN,blueBox.png,1,1,0,0,NaN,NaN,NaN,NaN,NaN,trial_right,blueBox.png,blueBox.png,greenBox.png,al2_uncon.png,24,13,NaN,NaN,0.85,0.15,1,0,0,1,Stable,Stable,1.05,1.95,1.319,1.487,inexpert
67,1671024649889,14/12/2022 13:30:49,1671024649809,0,14/12/2022 13:30:49,109680,33,task-qrxs,repeat-7g8d#1->-repeat-38fk#1->-repeat-qjz7#1->-repeat-5t6i#1,25951528,BLIND,7659497,NaN,complete,NaN,NaN,computer,Desktop or Laptop,Mac OS 10.15.7,Safari 14.1.2,1440x900,1440x820,End of Day 1,SLS,89,A,Pass,End of Day 1,Pass,NaN,NaN,NaN,Pass,NaN,Pass,NaN,schedule_B,schedule_B,14,6,5,feedback_r,Zone7,timelimit_screen,2000,NaN,NaN,,NaN,0,1,0,NaN,NaN,1,NaN,NaN,trial_right,blueBox.png,blueBox.png,greenBox.png,al2_uncon.png,24,13,NaN,NaN,0.85,0.15,1,0,0,1,Stable,Stable,1.05,1.95,1.319,1.487,inexpert
68,1671024650025,14/12/2022 13:30:50,1671024649959,0,14/12/2022 13:30:49,109680,33,task-qrxs,repeat-7g8d#1->-repeat-38fk#1->-repeat-qjz7#1->-repeat-5t6i#1,25951528,BLIND,7659497,NaN,complete,NaN,NaN,computer,Desktop or Laptop,Mac OS 10.15.7,Safari 14.1.2,1440x900,1440x820,End of Day 1,SLS,89,A,Pass,End of Day 1,Pass,NaN,NaN,NaN,Pass,NaN,Pass,NaN,schedule_B,schedule_B,14,6,6,end,Zone1,timelimit_screen,150,NaN,NaN,,NaN,0,1,0,NaN,NaN,1,NaN,NaN,trial_right,blueBox.png,blueBox.png,greenBox.png,al2_uncon.png,24,13,NaN,NaN,0.85,0.15,1,0,0,1,Stable,Stable,1.05,1.95,1.319,1.487,inexpert
69,1671024650950,14/12/2022 13:30:50,1671024650879,0,14/12/2022 13:30:50,109680,33,task-qrxs,repeat-7g8d#1->-repeat-38fk#1->-repeat-qjz7#1->-repeat-5t6i#1,25951528,BLIND,7659497,NaN,complete,NaN,NaN,computer,Desktop or Laptop,Mac OS 10.15.7,Safari 14.1.2,1440x900,1440x820,End of Day 1,SLS,89,A,Pass,End of Day 1,Pass,NaN,NaN,NaN,Pass,NaN,Pass,NaN,schedule_B,schedule_B,15,7,1,Screen 1,Zone1,continue_button,905,NaN,NaN,,NaN,0,1,0,NaN,NaN,NaN,NaN,NaN,trial_right,blueBox.png,blueBox.png,greenBox.png,al2_uncon.png,25,14,NaN,NaN,0.85,0.15,1,0,0,1,Stable,Stable,3.395,0.84,0.803,1.252,inexpert
70,1671024651950,14/12/2022 13:30:51,1671024651876,0,14/12/2022 13:30:51,109680,33,task-qrxs,repeat-7g8d#1->-repeat-38fk#1->-repeat-qjz7#1->-repeat-5t6i#1,25951528,BLIND,7659497,NaN,complete,NaN,NaN,computer,Desktop or Laptop,Mac OS 10.15.7,Safari 14.1.2,1440x900,1440x820,End of Day 1,SLS,89,A,Pass,End of Day 1,Pass,NaN,NaN,NaN,Pass,NaN,Pass,NaN,schedule_B,schedule_B,15,7,2,individual,Zone4,timelimit_screen,1000,NaN,NaN,,NaN,0,1,0,NaN,NaN,1,NaN,NaN,trial_right,blueBox.png,blueBox.png,greenBox.png,al2_uncon.png,25,14,NaN,NaN,0.85,0.15,1,0,0,1,Stable,Stable,3.395,0.84,0.803,1.252,inexpert
71,1671024652806,14/12/2022 13:30:52,1671024652743,0,14/12/2022 13:30:52,109680,33,task-qrxs,repeat-7g8d#1->-repeat-38fk#1->-repeat-qjz7#1->-repeat-5t6i#1,25951528,BLIND,7659497,NaN,complete,NaN,NaN,computer,Desktop or Laptop,Mac OS 10.15.7,Safari 14.1.2,1440x900,1440x820,End of Day 1,SLS,89,A,Pass,End of Day 1,Pass,NaN,NaN,NaN,Pass,NaN,Pass,NaN,schedule_B,schedule_B,15,7,3,offer,Zone3,response_button_image,857,NaN,NaN,greenBox.png,1,0,1,0,NaN,NaN,NaN,NaN,NaN,trial_right,blueBox.png,blueBox.png,greenBox.png,al2_uncon.png,25,14,NaN,NaN,0.85,0.15,1,0,0,1,Stable,Stable,3.395,0.84,0.803,1.252,inexpert
72,1671024654797,14/12/2022 13:30:54,1671024654726,0,14/12/2022 13:30:54,109680,33,task-qrxs,repeat-7g8d#1->-repeat-38fk#1->-repeat-qjz7#1->-repeat-5t6i#1,25951528,BLIND,7659497,NaN,complete,NaN,NaN,computer,Desktop or Laptop,Mac OS 10.15.7,Safari 14.1.2,1440x900,1440x820,End of Day 1,SLS,89,A,Pass,End of Day 1,Pass,NaN,NaN,NaN,Pass,NaN,Pass,NaN,schedule_B,schedule_B,15,7,5,feedback_r,Zone7,timelimit_screen,2000,NaN,NaN,,NaN,0,1,0,NaN,NaN,1,NaN,NaN,trial_right,blueBox.png,blueBox.png,greenBox.png,al2_uncon.png,25,14,NaN,NaN,0.85,0.15,1,0,0,1,Stable,Stable,3.395,0.84,0.803,1.252,inexpert
73,1671024654934,14/12/2022 13:30:54,1671024654875,0,14/12/2022 13:30:54,109680,33,task-qrxs,repeat-7g8d#1->-repeat-38fk#1->-repeat-qjz7#1->-repeat-5t6i#1,25951528,BLIND,7659497,NaN,complete,NaN,NaN,computer,Desktop or Laptop,Mac OS 10.15.7,Safari 14.1.2,1440x900,1440x820,End of Day 1,SLS,89,A,Pass,End of Day 1,Pass,NaN,NaN,NaN,Pass,NaN,Pass,NaN,schedule_B,schedule_B,15,7,6,end,Zone1,timelimit_screen,149,NaN,NaN,,NaN,0,1,0,NaN,NaN,1,NaN,NaN,trial_right,blueBox.png,blueBox.png,greenBox.png,al2_uncon.png,25,14,NaN,NaN,0.85,0.15,1,0,0,1,Stable,Stable,3.395,0.84,0.803,1.252,inexpert
74,1671024655764,14/12/2022 13:30:55,1671024655698,0,14/12/2022 13:30:55,109680,33,task-qrxs,repeat-7g8d#1->-repeat-38fk#1->-repeat-qjz7#1->-repeat-5t6i#1,25951528,BLIND,7659497,NaN,complete,NaN,NaN,computer,Desktop or Laptop,Mac OS 10.15.7,Safari 14.1.2,1440x900,1440x820,End of Day 1,SLS,89,A,Pass,End of Day 1,Pass,NaN,NaN,NaN,Pass,NaN,Pass,NaN,schedule_B,schedule_B,16,8,1,Screen 1,Zone1,continue_button,812,NaN,NaN,,NaN,0,1,0,NaN,NaN,NaN,NaN,NaN,trial_left,blueBox.png,blueBox.png,greenBox.png,al2_uncon.png,26,15,NaN,NaN,0.85,0.15,1,1,1,1,Stable,Stable,2.689,1.067,1.697,2.731,inexpert
75,1671024656753,14/12/2022 13:30:56,1671024656692,0,14/12/2022 13:30:56,109680,33,task-qrxs,repeat-7g8d#1->-repeat-38fk#1->-repeat-qjz7#1->-repeat-5t6i#1,25951528,BLIND,7659497,NaN,complete,NaN,NaN,computer,Desktop or Laptop,Mac OS 10.15.7,Safari 14.1.2,1440x900,1440x820,End of Day 1,SLS,89,A,Pass,End of Day 1,Pass,NaN,NaN,NaN,Pass,NaN,Pass,NaN,schedule_B,schedule_B,16,8,2,individual,Zone4,timelimit_screen,1000,NaN,NaN,,NaN,0,1,0,NaN,NaN,1,NaN,NaN,trial_left,blueBox.png,blueBox.png,greenBox.png,al2_uncon.png,26,15,NaN,NaN,0.85,0.15,1,1,1,1,Stable,Stable,2.689,1.067,1.697,2.731,inexpert
76,1671024657911,14/12/2022 13:30:57,1671024657844,0,14/12/2022 13:30:57,109680,33,task-qrxs,repeat-7g8d#1->-repeat-38fk#1->-repeat-qjz7#1->-repeat-5t6i#1,25951528,BLIND,7659497,NaN,complete,NaN,NaN,computer,Desktop or Laptop,Mac OS 10.15.7,Safari 14.1.2,1440x900,1440x820,End of Day 1,SLS,89,A,Pass,End of Day 1,Pass,NaN,NaN,NaN,Pass,NaN,Pass,NaN,schedule_B,schedule_B,16,8,3,offer,Zone2,response_button_image,1141,NaN,NaN,blueBox.png,1,1,0,0,NaN,NaN,NaN,NaN,NaN,trial_left,blueBox.png,blueBox.png,greenBox.png,al2_uncon.png,26,15,NaN,NaN,0.85,0.15,1,1,1,1,Stable,Stable,2.689,1.067,1.697,2.731,inexpert
77,1671024659914,14/12/2022 13:30:59,1671024659842,0,14/12/2022 13:30:59,109680,33,task-qrxs,repeat-7g8d#1->-repeat-38fk#1->-repeat-qjz7#1->-repeat-5t6i#1,25951528,BLIND,7659497,NaN,complete,NaN,NaN,computer,Desktop or Laptop,Mac OS 10.15.7,Safari 14.1.2,1440x900,1440x820,End of Day 1,SLS,89,A,Pass,End of Day 1,Pass,NaN,NaN,NaN,Pass,NaN,Pass,NaN,schedule_B,schedule_B,16,8,5,feedback_r,Zone7,timelimit_screen,2000,NaN,NaN,,NaN,0,1,0,NaN,NaN,1,NaN,NaN,trial_left,blueBox.png,blueBox.png,greenBox.png,al2_uncon.png,26,15,NaN,NaN,0.85,0.15,1,1,1,1,Stable,Stable,2.689,1.067,1.697,2.731,inexpert
78,1671024660047,14/12/2022 13:31:00,1671024659992,0,14/12/2022 13:30:59,109680,33,task-qrxs,repeat-7g8d#1->-repeat-38fk#1->-repeat-qjz7#1->-repeat-5t6i#1,25951528,BLIND,7659497,NaN,complete,NaN,NaN,computer,Desktop or Laptop,Mac OS 10.15.7,Safari 14.1.2,1440x900,1440x820,End of Day 1,SLS,89,A,Pass,End of Day 1,Pass,NaN,NaN,NaN,Pass,NaN,Pass,NaN,schedule_B,schedule_B,16,8,6,end,Zone1,timelimit_screen,150,NaN,NaN,,NaN,0,1,0,NaN,NaN,1,NaN,NaN,trial_left,blueBox.png,blueBox.png,greenBox.png,al2_uncon.png,26,15,NaN,NaN,0.85,0.15,1,1,1,1,Stable,Stable,2.689,1.067,1.697,2.731,inexpert
79,1671024661184,14/12/2022 13:31:01,1671024661119,0,14/12/2022 13:31:01,109680,33,task-qrxs,repeat-7g8d#1->-repeat-38fk#1->-repeat-qjz7#1->-repeat-5t6i#1,25951528,BLIND,7659497,NaN,complete,NaN,NaN,computer,Desktop or Laptop,Mac OS 10.15.7,Safari 14.1.2,1440x900,1440x820,End of Day 1,SLS,89,A,Pass,End of Day 1,Pass,NaN,NaN,NaN,Pass,NaN,Pass,NaN,schedule_B,schedule_B,17,9,1,Screen 1,Zone1,continue_button,1113,NaN,NaN,,NaN,0,1,0,NaN,NaN,NaN,NaN,NaN,trial_left,greenBox.png,greenBox.png,blueBox.png,al2_uncon.png,27,16,NaN,NaN,0.15,0.15,0,1,0,0,Stable,Stable,1.378,0.689,0.878,2.076,inexpert
80,1671024662175,14/12/2022 13:31:02,1671024662109,0,14/12/2022 13:31:02,109680,33,task-qrxs,repeat-7g8d#1->-repeat-38fk#1->-repeat-qjz7#1->-repeat-5t6i#1,25951528,BLIND,7659497,NaN,complete,NaN,NaN,computer,Desktop or Laptop,Mac OS 10.15.7,Safari 14.1.2,1440x900,1440x820,End of Day 1,SLS,89,A,Pass,End of Day 1,Pass,NaN,NaN,NaN,Pass,NaN,Pass,NaN,schedule_B,schedule_B,17,9,2,individual,Zone4,timelimit_screen,1001,NaN,NaN,,NaN,0,1,0,NaN,NaN,1,NaN,NaN,trial_left,greenBox.png,greenBox.png,blueBox.png,al2_uncon.png,27,16,NaN,NaN,0.15,0.15,0,1,0,0,Stable,Stable,1.378,0.689,0.878,2.076,inexpert
81,1671024663221,14/12/2022 13:31:03,1671024663145,0,14/12/2022 13:31:03,109680,33,task-qrxs,repeat-7g8d#1->-repeat-38fk#1->-repeat-qjz7#1->-repeat-5t6i#1,25951528,BLIND,7659497,NaN,complete,NaN,NaN,computer,Desktop or Laptop,Mac OS 10.15.7,Safari 14.1.2,1440x900,1440x820,End of Day 1,SLS,89,A,Pass,End of Day 1,Pass,NaN,NaN,NaN,Pass,NaN,Pass,NaN,schedule_B,schedule_B,17,9,3,offer,Zone2,response_button_image,1025,NaN,NaN,greenBox.png,1,1,0,0,NaN,NaN,NaN,NaN,NaN,trial_left,greenBox.png,greenBox.png,blueBox.png,al2_uncon.png,27,16,NaN,NaN,0.15,0.15,0,1,0,0,Stable,Stable,1.378,0.689,0.878,2.076,inexpert
82,1671024665228,14/12/2022 13:31:05,1671024665143,0,14/12/2022 13:31:05,109680,33,task-qrxs,repeat-7g8d#1->-repeat-38fk#1->-repeat-qjz7#1->-repeat-5t6i#1,25951528,BLIND,7659497,NaN,complete,NaN,NaN,computer,Desktop or Laptop,Mac OS 10.15.7,Safari 14.1.2,1440x900,1440x820,End of Day 1,SLS,89,A,Pass,End of Day 1,Pass,NaN,NaN,NaN,Pass,NaN,Pass,NaN,schedule_B,schedule_B,17,9,5,feedback_r,Zone7,timelimit_screen,2000,NaN,NaN,,NaN,0,1,0,NaN,NaN,1,NaN,NaN,trial_left,greenBox.png,greenBox.png,blueBox.png,al2_uncon.png,27,16,NaN,NaN,0.15,0.15,0,1,0,0,Stable,Stable,1.378,0.689,0.878,2.076,inexpert
83,1671024665355,14/12/2022 13:31:05,1671024665292,0,14/12/2022 13:31:05,109680,33,task-qrxs,repeat-7g8d#1->-repeat-38fk#1->-repeat-qjz7#1->-repeat-5t6i#1,25951528,BLIND,7659497,NaN,complete,NaN,NaN,computer,Desktop or Laptop,Mac OS 10.15.7,Safari 14.1.2,1440x900,1440x820,End of Day 1,SLS,89,A,Pass,End of Day 1,Pass,NaN,NaN,NaN,Pass,NaN,Pass,NaN,schedule_B,schedule_B,17,9,6,end,Zone1,timelimit_screen,150,NaN,NaN,,NaN,0,1,0,NaN,NaN,1,NaN,NaN,trial_left,greenBox.png,greenBox.png,blueBox.png,al2_uncon.png,27,16,NaN,NaN,0.15,0.15,0,1,0,0,Stable,Stable,1.378,0.689,0.878,2.076,inexpert
84,1671024666559,14/12/2022 13:31:06,1671024666380,0,14/12/2022 13:31:06,109680,33,task-qrxs,repeat-7g8d#1->-repeat-38fk#1->-repeat-qjz7#1->-repeat-5t6i#1,25951528,BLIND,7659497,NaN,complete,NaN,NaN,computer,Desktop or Laptop,Mac OS 10.15.7,Safari 14.1.2,1440x900,1440x820,End of Day 1,SLS,89,A,Pass,End of Day 1,Pass,NaN,NaN,NaN,Pass,NaN,Pass,NaN,schedule_B,schedule_B,18,8,1,Screen 1,Zone1,continue_button,1073,NaN,NaN,,NaN,0,1,0,NaN,NaN,NaN,NaN,NaN,trial_right,greenBox.png,blueBox.png,greenBox.png,al2_uncon.png,28,17,NaN,NaN,0.15,0.15,0,1,0,1,Stable,Stable,2.714,0.739,1.975,1.134,inexpert
85,1671024667445,14/12/2022 13:31:07,1671024667376,0,14/12/2022 13:31:07,109680,33,task-qrxs,repeat-7g8d#1->-repeat-38fk#1->-repeat-qjz7#1->-repeat-5t6i#1,25951528,BLIND,7659497,NaN,complete,NaN,NaN,computer,Desktop or Laptop,Mac OS 10.15.7,Safari 14.1.2,1440x900,1440x820,End of Day 1,SLS,89,A,Pass,End of Day 1,Pass,NaN,NaN,NaN,Pass,NaN,Pass,NaN,schedule_B,schedule_B,18,8,2,individual,Zone4,timelimit_screen,1000,NaN,NaN,,NaN,0,1,0,NaN,NaN,1,NaN,NaN,trial_right,greenBox.png,blueBox.png,greenBox.png,al2_uncon.png,28,17,NaN,NaN,0.15,0.15,0,1,0,1,Stable,Stable,2.714,0.739,1.975,1.134,inexpert
86,1671024668311,14/12/2022 13:31:08,1671024668243,0,14/12/2022 13:31:08,109680,33,task-qrxs,repeat-7g8d#1->-repeat-38fk#1->-repeat-qjz7#1->-repeat-5t6i#1,25951528,BLIND,7659497,NaN,complete,NaN,NaN,computer,Desktop or Laptop,Mac OS 10.15.7,Safari 14.1.2,1440x900,1440x820,End of Day 1,SLS,89,A,Pass,End of Day 1,Pass,NaN,NaN,NaN,Pass,NaN,Pass,NaN,schedule_B,schedule_B,18,8,3,offer,Zone3,response_button_image,857,NaN,NaN,greenBox.png,1,1,0,0,NaN,NaN,NaN,NaN,NaN,trial_right,greenBox.png,blueBox.png,greenBox.png,al2_uncon.png,28,17,NaN,NaN,0.15,0.15,0,1,0,1,Stable,Stable,2.714,0.739,1.975,1.134,inexpert
87,1671024670287,14/12/2022 13:31:10,1671024670225,0,14/12/2022 13:31:10,109680,33,task-qrxs,repeat-7g8d#1->-repeat-38fk#1->-repeat-qjz7#1->-repeat-5t6i#1,25951528,BLIND,7659497,NaN,complete,NaN,NaN,computer,Desktop or Laptop,Mac OS 10.15.7,Safari 14.1.2,1440x900,1440x820,End of Day 1,SLS,89,A,Pass,End of Day 1,Pass,NaN,NaN,NaN,Pass,NaN,Pass,NaN,schedule_B,schedule_B,18,8,5,feedback_r,Zone7,timelimit_screen,1999,NaN,NaN,,NaN,0,1,0,NaN,NaN,1,NaN,NaN,trial_right,greenBox.png,blueBox.png,greenBox.png,al2_uncon.png,28,17,NaN,NaN,0.15,0.15,0,1,0,1,Stable,Stable,2.714,0.739,1.975,1.134,inexpert
88,1671024670432,14/12/2022 13:31:10,1671024670376,0,14/12/2022 13:31:10,109680,33,task-qrxs,repeat-7g8d#1->-repeat-38fk#1->-repeat-qjz7#1->-repeat-5t6i#1,25951528,BLIND,7659497,NaN,complete,NaN,NaN,computer,Desktop or Laptop,Mac OS 10.15.7,Safari 14.1.2,1440x900,1440x820,End of Day 1,SLS,89,A,Pass,End of Day 1,Pass,NaN,NaN,NaN,Pass,NaN,Pass,NaN,schedule_B,schedule_B,18,8,6,end,Zone1,timelimit_screen,151,NaN,NaN,,NaN,0,1,0,NaN,NaN,1,NaN,NaN,trial_right,greenBox.png,blueBox.png,greenBox.png,al2_uncon.png,28,17,NaN,NaN,0.15,0.15,0,1,0,1,Stable,Stable,2.714,0.739,1.975,1.134,inexpert
89,1671024671497,14/12/2022 13:31:11,1671024671415,0,14/12/2022 13:31:11,109680,33,task-qrxs,repeat-7g8d#1->-repeat-38fk#1->-repeat-qjz7#1->-repeat-5t6i#1,25951528,BLIND,7659497,NaN,complete,NaN,NaN,computer,Desktop or Laptop,Mac OS 10.15.7,Safari 14.1.2,1440x900,1440x820,End of Day 1,SLS,89,A,Pass,End of Day 1,Pass,NaN,NaN,NaN,Pass,NaN,Pass,NaN,schedule_B,schedule_B,19,9,1,Screen 1,Zone1,continue_button,1025,NaN,NaN,,NaN,0,1,0,NaN,NaN,NaN,NaN,NaN,trial_right,greenBox.png,greenBox.png,blueBox.png,al2_uncon.png,29,18,NaN,NaN,0.15,0.15,0,0,1,0,Stable,Stable,3.874,0.676,1.496,1.639,inexpert
90,1671024672481,14/12/2022 13:31:12,1671024672410,0,14/12/2022 13:31:12,109680,33,task-qrxs,repeat-7g8d#1->-repeat-38fk#1->-repeat-qjz7#1->-repeat-5t6i#1,25951528,BLIND,7659497,NaN,complete,NaN,NaN,computer,Desktop or Laptop,Mac OS 10.15.7,Safari 14.1.2,1440x900,1440x820,End of Day 1,SLS,89,A,Pass,End of Day 1,Pass,NaN,NaN,NaN,Pass,NaN,Pass,NaN,schedule_B,schedule_B,19,9,2,individual,Zone4,timelimit_screen,1000,NaN,NaN,,NaN,0,1,0,NaN,NaN,1,NaN,NaN,trial_right,greenBox.png,greenBox.png,blueBox.png,al2_uncon.png,29,18,NaN,NaN,0.15,0.15,0,0,1,0,Stable,Stable,3.874,0.676,1.496,1.639,inexpert
91,1671024673398,14/12/2022 13:31:13,1671024673328,0,14/12/2022 13:31:13,109680,33,task-qrxs,repeat-7g8d#1->-repeat-38fk#1->-repeat-qjz7#1->-repeat-5t6i#1,25951528,BLIND,7659497,NaN,complete,NaN,NaN,computer,Desktop or Laptop,Mac OS 10.15.7,Safari 14.1.2,1440x900,1440x820,End of Day 1,SLS,89,A,Pass,End of Day 1,Pass,NaN,NaN,NaN,Pass,NaN,Pass,NaN,schedule_B,schedule_B,19,9,3,offer,Zone3,response_button_image,909,NaN,NaN,blueBox.png,1,0,1,0,NaN,NaN,NaN,NaN,NaN,trial_right,greenBox.png,greenBox.png,blueBox.png,al2_uncon.png,29,18,NaN,NaN,0.15,0.15,0,0,1,0,Stable,Stable,3.874,0.676,1.496,1.639,inexpert
92,1671024675407,14/12/2022 13:31:15,1671024675325,0,14/12/2022 13:31:15,109680,33,task-qrxs,repeat-7g8d#1->-repeat-38fk#1->-repeat-qjz7#1->-repeat-5t6i#1,25951528,BLIND,7659497,NaN,complete,NaN,NaN,computer,Desktop or Laptop,Mac OS 10.15.7,Safari 14.1.2,1440x900,1440x820,End of Day 1,SLS,89,A,Pass,End of Day 1,Pass,NaN,NaN,NaN,Pass,NaN,Pass,NaN,schedule_B,schedule_B,19,9,5,feedback_r,Zone7,timelimit_screen,2000,NaN,NaN,,NaN,0,1,0,NaN,NaN,1,NaN,NaN,trial_right,greenBox.png,greenBox.png,blueBox.png,al2_uncon.png,29,18,NaN,NaN,0.15,0.15,0,0,1,0,Stable,Stable,3.874,0.676,1.496,1.639,inexpert
93,1671024675537,14/12/2022 13:31:15,1671024675476,0,14/12/2022 13:31:15,109680,33,task-qrxs,repeat-7g8d#1->-repeat-38fk#1->-repeat-qjz7#1->-repeat-5t6i#1,25951528,BLIND,7659497,NaN,complete,NaN,NaN,computer,Desktop or Laptop,Mac OS 10.15.7,Safari 14.1.2,1440x900,1440x820,End of Day 1,SLS,89,A,Pass,End of Day 1,Pass,NaN,NaN,NaN,Pass,NaN,Pass,NaN,schedule_B,schedule_B,19,9,6,end,Zone1,timelimit_screen,151,NaN,NaN,,NaN,0,1,0,NaN,NaN,1,NaN,NaN,trial_right,greenBox.png,greenBox.png,blueBox.png,al2_uncon.png,29,18,NaN,NaN,0.15,0.15,0,0,1,0,Stable,Stable,3.874,0.676,1.496,1.639,inexpert
94,1671024676382,14/12/2022 13:31:16,1671024676314,0,14/12/2022 13:31:16,109680,33,task-qrxs,repeat-7g8d#1->-repeat-38fk#1->-repeat-qjz7#1->-repeat-5t6i#1,25951528,BLIND,7659497,NaN,complete,NaN,NaN,computer,Desktop or Laptop,Mac OS 10.15.7,Safari 14.1.2,1440x900,1440x820,End of Day 1,SLS,89,A,Pass,End of Day 1,Pass,NaN,NaN,NaN,Pass,NaN,Pass,NaN,schedule_B,schedule_B,20,10,1,Screen 1,Zone1,continue_button,826,NaN,NaN,,NaN,0,1,0,NaN,NaN,NaN,NaN,NaN,trial_left,greenBox.png,greenBox.png,blueBox.png,al2_uncon.png,30,19,NaN,NaN,0.15,0.15,0,1,0,0,Stable,Stable,1.252,1.193,0.853,2.681,inexpert
95,1671024677373,14/12/2022 13:31:17,1671024677309,0,14/12/2022 13:31:17,109680,33,task-qrxs,repeat-7g8d#1->-repeat-38fk#1->-repeat-qjz7#1->-repeat-5t6i#1,25951528,BLIND,7659497,NaN,complete,NaN,NaN,computer,Desktop or Laptop,Mac OS 10.15.7,Safari 14.1.2,1440x900,1440x820,End of Day 1,SLS,89,A,Pass,End of Day 1,Pass,NaN,NaN,NaN,Pass,NaN,Pass,NaN,schedule_B,schedule_B,20,10,2,individual,Zone4,timelimit_screen,1001,NaN,NaN,,NaN,0,1,0,NaN,NaN,1,NaN,NaN,trial_left,greenBox.png,greenBox.png,blueBox.png,al2_uncon.png,30,19,NaN,NaN,0.15,0.15,0,1,0,0,Stable,Stable,1.252,1.193,0.853,2.681,inexpert
96,1671024678216,14/12/2022 13:31:18,1671024678148,0,14/12/2022 13:31:18,109680,33,task-qrxs,repeat-7g8d#1->-repeat-38fk#1->-repeat-qjz7#1->-repeat-5t6i#1,25951528,BLIND,7659497,NaN,complete,NaN,NaN,computer,Desktop or Laptop,Mac OS 10.15.7,Safari 14.1.2,1440x900,1440x820,End of Day 1,SLS,89,A,Pass,End of Day 1,Pass,NaN,NaN,NaN,Pass,NaN,Pass,NaN,schedule_B,schedule_B,20,10,3,offer,Zone2,response_button_image,829,NaN,NaN,greenBox.png,1,1,0,0,NaN,NaN,NaN,NaN,NaN,trial_left,greenBox.png,greenBox.png,blueBox.png,al2_uncon.png,30,19,NaN,NaN,0.15,0.15,0,1,0,0,Stable,Stable,1.252,1.193,0.853,2.681,inexpert
97,1671024680220,14/12/2022 13:31:20,1671024680143,0,14/12/2022 13:31:20,109680,33,task-qrxs,repeat-7g8d#1->-repeat-38fk#1->-repeat-qjz7#1->-repeat-5t6i#1,25951528,BLIND,7659497,NaN,complete,NaN,NaN,computer,Desktop or Laptop,Mac OS 10.15.7,Safari 14.1.2,1440x900,1440x820,End of Day 1,SLS,89,A,Pass,End of Day 1,Pass,NaN,NaN,NaN,Pass,NaN,Pass,NaN,schedule_B,schedule_B,20,10,5,feedback_r,Zone7,timelimit_screen,2001,NaN,NaN,,NaN,0,1,0,NaN,NaN,1,NaN,NaN,trial_left,greenBox.png,greenBox.png,blueBox.png,al2_uncon.png,30,19,NaN,NaN,0.15,0.15,0,1,0,0,Stable,Stable,1.252,1.193,0.853,2.681,inexpert
98,1671024680358,14/12/2022 13:31:20,1671024680292,0,14/12/2022 13:31:20,109680,33,task-qrxs,repeat-7g8d#1->-repeat-38fk#1->-repeat-qjz7#1->-repeat-5t6i#1,25951528,BLIND,7659497,NaN,complete,NaN,NaN,computer,Desktop or Laptop,Mac OS 10.15.7,Safari 14.1.2,1440x900,1440x820,End of Day 1,SLS,89,A,Pass,End of Day 1,Pass,NaN,NaN,NaN,Pass,NaN,Pass,NaN,schedule_B,schedule_B,20,10,6,end,Zone1,timelimit_screen,150,NaN,NaN,,NaN,0,1,0,NaN,NaN,1,NaN,NaN,trial_left,greenBox.png,greenBox.png,blueBox.png,al2_uncon.png,30,19,NaN,NaN,0.15,0.15,0,1,0,0,Stable,Stable,1.252,1.193,0.853,2.681,inexpert
99,1671024681461,14/12/2022 13:31:21,1671024681390,0,14/12/2022 13:31:21,109680,33,task-qrxs,repeat-7g8d#1->-repeat-38fk#1->-repeat-qjz7#1->-repeat-5t6i#1,25951528,BLIND,7659497,NaN,complete,NaN,NaN,computer,Desktop or Laptop,Mac OS 10.15.7,Safari 14.1.2,1440x900,1440x820,End of Day 1,SLS,89,A,Pass,End of Day 1,Pass,NaN,NaN,NaN,Pass,NaN,Pass,NaN,schedule_B,schedule_B,21,10,1,Screen 1,Zone1,continue_button,1085,NaN,NaN,,NaN,0,1,0,NaN,NaN,NaN,NaN,NaN,trial_right,greenBox.png,greenBox.png,blueBox.png,al2_uncon.png,41,20,NaN,NaN,0.15,0.15,0,0,1,0,Stable,Stable,3.521,1.723,1.37,1.655,inexpert
100,1671024682446,14/12/2022 13:31:22,1671024682375,0,14/12/2022 13:31:22,109680,33,task-qrxs,repeat-7g8d#1->-repeat-38fk#1->-repeat-qjz7#1->-repeat-5t6i#1,25951528,BLIND,7659497,NaN,complete,NaN,NaN,computer,Desktop or Laptop,Mac OS 10.15.7,Safari 14.1.2,1440x900,1440x820,End of Day 1,SLS,89,A,Pass,End of Day 1,Pass,NaN,NaN,NaN,Pass,NaN,Pass,NaN,schedule_B,schedule_B,21,10,2,individual,Zone4,timelimit_screen,1000,NaN,NaN,,NaN,0,1,0,NaN,NaN,1,NaN,NaN,trial_right,greenBox.png,greenBox.png,blueBox.png,al2_uncon.png,41,20,NaN,NaN,0.15,0.15,0,0,1,0,Stable,Stable,3.521,1.723,1.37,1.655,inexpert
101,1671024683277,14/12/2022 13:31:23,1671024683215,0,14/12/2022 13:31:23,109680,33,task-qrxs,repeat-7g8d#1->-repeat-38fk#1->-repeat-qjz7#1->-repeat-5t6i#1,25951528,BLIND,7659497,NaN,complete,NaN,NaN,computer,Desktop or Laptop,Mac OS 10.15.7,Safari 14.1.2,1440x900,1440x820,End of Day 1,SLS,89,A,Pass,End of Day 1,Pass,NaN,NaN,NaN,Pass,NaN,Pass,NaN,schedule_B,schedule_B,21,10,3,offer,Zone3,response_button_image,831,NaN,NaN,blueBox.png,1,0,1,0,NaN,NaN,NaN,NaN,NaN,trial_right,greenBox.png,greenBox.png,blueBox.png,al2_uncon.png,41,20,NaN,NaN,0.15,0.15,0,0,1,0,Stable,Stable,3.521,1.723,1.37,1.655,inexpert
102,1671024685288,14/12/2022 13:31:25,1671024685210,0,14/12/2022 13:31:25,109680,33,task-qrxs,repeat-7g8d#1->-repeat-38fk#1->-repeat-qjz7#1->-repeat-5t6i#1,25951528,BLIND,7659497,NaN,complete,NaN,NaN,computer,Desktop or Laptop,Mac OS 10.15.7,Safari 14.1.2,1440x900,1440x820,End of Day 1,SLS,89,A,Pass,End of Day 1,Pass,NaN,NaN,NaN,Pass,NaN,Pass,NaN,schedule_B,schedule_B,21,10,5,feedback_r,Zone7,timelimit_screen,2000,NaN,NaN,,NaN,0,1,0,NaN,NaN,1,NaN,NaN,trial_right,greenBox.png,greenBox.png,blueBox.png,al2_uncon.png,41,20,NaN,NaN,0.15,0.15,0,0,1,0,Stable,Stable,3.521,1.723,1.37,1.655,inexpert
103,1671024685423,14/12/2022 13:31:25,1671024685359,0,14/12/2022 13:31:25,109680,33,task-qrxs,repeat-7g8d#1->-repeat-38fk#1->-repeat-qjz7#1->-repeat-5t6i#1,25951528,BLIND,7659497,NaN,complete,NaN,NaN,computer,Desktop or Laptop,Mac OS 10.15.7,Safari 14.1.2,1440x900,1440x820,End of Day 1,SLS,89,A,Pass,End of Day 1,Pass,NaN,NaN,NaN,Pass,NaN,Pass,NaN,schedule_B,schedule_B,21,10,6,end,Zone1,timelimit_screen,150,NaN,NaN,,NaN,0,1,0,NaN,NaN,1,NaN,NaN,trial_right,greenBox.png,greenBox.png,blueBox.png,al2_uncon.png,41,20,NaN,NaN,0.15,0.15,0,0,1,0,Stable,Stable,3.521,1.723,1.37,1.655,inexpert
104,1671024686565,14/12/2022 13:31:26,1671024686490,0,14/12/2022 13:31:26,109680,33,task-qrxs,repeat-7g8d#1->-repeat-38fk#1->-repeat-qjz7#1->-repeat-5t6i#1,25951528,BLIND,7659497,NaN,complete,NaN,NaN,computer,Desktop or Laptop,Mac OS 10.15.7,Safari 14.1.2,1440x900,1440x820,End of Day 1,SLS,89,A,Pass,End of Day 1,Pass,NaN,NaN,NaN,Pass,NaN,Pass,NaN,schedule_B,schedule_B,22,11,1,Screen 1,Zone1,continue_button,1116,NaN,NaN,,NaN,0,1,0,NaN,NaN,NaN,NaN,NaN,trial_left,blueBox.png,blueBox.png,greenBox.png,al2_uncon.png,42,21,NaN,NaN,0.85,0.15,1,1,1,1,Stable,Stable,2.336,0.651,1.685,2.882,inexpert
105,1671024687554,14/12/2022 13:31:27,1671024687476,0,14/12/2022 13:31:27,109680,33,task-qrxs,repeat-7g8d#1->-repeat-38fk#1->-repeat-qjz7#1->-repeat-5t6i#1,25951528,BLIND,7659497,NaN,complete,NaN,NaN,computer,Desktop or Laptop,Mac OS 10.15.7,Safari 14.1.2,1440x900,1440x820,End of Day 1,SLS,89,A,Pass,End of Day 1,Pass,NaN,NaN,NaN,Pass,NaN,Pass,NaN,schedule_B,schedule_B,22,11,2,individual,Zone4,timelimit_screen,1000,NaN,NaN,,NaN,0,1,0,NaN,NaN,1,NaN,NaN,trial_left,blueBox.png,blueBox.png,greenBox.png,al2_uncon.png,42,21,NaN,NaN,0.85,0.15,1,1,1,1,Stable,Stable,2.336,0.651,1.685,2.882,inexpert
106,1671024688343,14/12/2022 13:31:28,1671024688268,0,14/12/2022 13:31:28,109680,33,task-qrxs,repeat-7g8d#1->-repeat-38fk#1->-repeat-qjz7#1->-repeat-5t6i#1,25951528,BLIND,7659497,NaN,complete,NaN,NaN,computer,Desktop or Laptop,Mac OS 10.15.7,Safari 14.1.2,1440x900,1440x820,End of Day 1,SLS,89,A,Pass,End of Day 1,Pass,NaN,NaN,NaN,Pass,NaN,Pass,NaN,schedule_B,schedule_B,22,11,3,offer,Zone2,response_button_image,785,NaN,NaN,blueBox.png,1,1,0,0,NaN,NaN,NaN,NaN,NaN,trial_left,blueBox.png,blueBox.png,greenBox.png,al2_uncon.png,42,21,NaN,NaN,0.85,0.15,1,1,1,1,Stable,Stable,2.336,0.651,1.685,2.882,inexpert
107,1671024690327,14/12/2022 13:31:30,1671024690258,0,14/12/2022 13:31:30,109680,33,task-qrxs,repeat-7g8d#1->-repeat-38fk#1->-repeat-qjz7#1->-repeat-5t6i#1,25951528,BLIND,7659497,NaN,complete,NaN,NaN,computer,Desktop or Laptop,Mac OS 10.15.7,Safari 14.1.2,1440x900,1440x820,End of Day 1,SLS,89,A,Pass,End of Day 1,Pass,NaN,NaN,NaN,Pass,NaN,Pass,NaN,schedule_B,schedule_B,22,11,5,feedback_r,Zone7,timelimit_screen,1999,NaN,NaN,,NaN,0,1,0,NaN,NaN,1,NaN,NaN,trial_left,blueBox.png,blueBox.png,greenBox.png,al2_uncon.png,42,21,NaN,NaN,0.85,0.15,1,1,1,1,Stable,Stable,2.336,0.651,1.685,2.882,inexpert
108,1671024690473,14/12/2022 13:31:30,1671024690408,0,14/12/2022 13:31:30,109680,33,task-qrxs,repeat-7g8d#1->-repeat-38fk#1->-repeat-qjz7#1->-repeat-5t6i#1,25951528,BLIND,7659497,NaN,complete,NaN,NaN,computer,Desktop or Laptop,Mac OS 10.15.7,Safari 14.1.2,1440x900,1440x820,End of Day 1,SLS,89,A,Pass,End of Day 1,Pass,NaN,NaN,NaN,Pass,NaN,Pass,NaN,schedule_B,schedule_B,22,11,6,end,Zone1,timelimit_screen,150,NaN,NaN,,NaN,0,1,0,NaN,NaN,1,NaN,NaN,trial_left,blueBox.png,blueBox.png,greenBox.png,al2_uncon.png,42,21,NaN,NaN,0.85,0.15,1,1,1,1,Stable,Stable,2.336,0.651,1.685,2.882,inexpert
109,1671024691691,14/12/2022 13:31:31,1671024691630,0,14/12/2022 13:31:31,109680,33,task-qrxs,repeat-7g8d#1->-repeat-38fk#1->-repeat-qjz7#1->-repeat-5t6i#1,25951528,BLIND,7659497,NaN,complete,NaN,NaN,computer,Desktop or Laptop,Mac OS 10.15.7,Safari 14.1.2,1440x900,1440x820,End of Day 1,SLS,89,A,Pass,End of Day 1,Pass,NaN,NaN,NaN,Pass,NaN,Pass,NaN,schedule_B,schedule_B,23,11,1,Screen 1,Zone1,continue_button,1209,NaN,NaN,,NaN,0,1,0,NaN,NaN,NaN,NaN,NaN,trial_right,blueBox.png,blueBox.png,greenBox.png,al2_uncon.png,43,22,NaN,NaN,0.85,0.15,1,0,0,1,Stable,Stable,3.622,1.319,1.193,1.067,inexpert
110,1671024692694,14/12/2022 13:31:32,1671024692625,0,14/12/2022 13:31:32,109680,33,task-qrxs,repeat-7g8d#1->-repeat-38fk#1->-repeat-qjz7#1->-repeat-5t6i#1,25951528,BLIND,7659497,NaN,complete,NaN,NaN,computer,Desktop or Laptop,Mac OS 10.15.7,Safari 14.1.2,1440x900,1440x820,End of Day 1,SLS,89,A,Pass,End of Day 1,Pass,NaN,NaN,NaN,Pass,NaN,Pass,NaN,schedule_B,schedule_B,23,11,2,individual,Zone4,timelimit_screen,999,NaN,NaN,,NaN,0,1,0,NaN,NaN,1,NaN,NaN,trial_right,blueBox.png,blueBox.png,greenBox.png,al2_uncon.png,43,22,NaN,NaN,0.85,0.15,1,0,0,1,Stable,Stable,3.622,1.319,1.193,1.067,inexpert
111,1671024693201,14/12/2022 13:31:33,1671024693135,0,14/12/2022 13:31:33,109680,33,task-qrxs,repeat-7g8d#1->-repeat-38fk#1->-repeat-qjz7#1->-repeat-5t6i#1,25951528,BLIND,7659497,NaN,complete,NaN,NaN,computer,Desktop or Laptop,Mac OS 10.15.7,Safari 14.1.2,1440x900,1440x820,End of Day 1,SLS,89,A,Pass,End of Day 1,Pass,NaN,NaN,NaN,Pass,NaN,Pass,NaN,schedule_B,schedule_B,23,11,3,offer,Zone3,response_button_image,502,NaN,NaN,greenBox.png,1,0,1,0,NaN,NaN,NaN,NaN,NaN,trial_right,blueBox.png,blueBox.png,greenBox.png,al2_uncon.png,43,22,NaN,NaN,0.85,0.15,1,0,0,1,Stable,Stable,3.622,1.319,1.193,1.067,inexpert
112,1671024695196,14/12/2022 13:31:35,1671024695126,0,14/12/2022 13:31:35,109680,33,task-qrxs,repeat-7g8d#1->-repeat-38fk#1->-repeat-qjz7#1->-repeat-5t6i#1,25951528,BLIND,7659497,NaN,complete,NaN,NaN,computer,Desktop or Laptop,Mac OS 10.15.7,Safari 14.1.2,1440x900,1440x820,End of Day 1,SLS,89,A,Pass,End of Day 1,Pass,NaN,NaN,NaN,Pass,NaN,Pass,NaN,schedule_B,schedule_B,23,11,5,feedback_r,Zone7,timelimit_screen,2000,NaN,NaN,,NaN,0,1,0,NaN,NaN,1,NaN,NaN,trial_right,blueBox.png,blueBox.png,greenBox.png,al2_uncon.png,43,22,NaN,NaN,0.85,0.15,1,0,0,1,Stable,Stable,3.622,1.319,1.193,1.067,inexpert
113,1671024695343,14/12/2022 13:31:35,1671024695276,0,14/12/2022 13:31:35,109680,33,task-qrxs,repeat-7g8d#1->-repeat-38fk#1->-repeat-qjz7#1->-repeat-5t6i#1,25951528,BLIND,7659497,NaN,complete,NaN,NaN,computer,Desktop or Laptop,Mac OS 10.15.7,Safari 14.1.2,1440x900,1440x820,End of Day 1,SLS,89,A,Pass,End of Day 1,Pass,NaN,NaN,NaN,Pass,NaN,Pass,NaN,schedule_B,schedule_B,23,11,6,end,Zone1,timelimit_screen,150,NaN,NaN,,NaN,0,1,0,NaN,NaN,1,NaN,NaN,trial_right,blueBox.png,blueBox.png,greenBox.png,al2_uncon.png,43,22,NaN,NaN,0.85,0.15,1,0,0,1,Stable,Stable,3.622,1.319,1.193,1.067,inexpert
114,1671024696868,14/12/2022 13:31:36,1671024696794,0,14/12/2022 13:31:36,109680,33,task-qrxs,repeat-7g8d#1->-repeat-38fk#1->-repeat-qjz7#1->-repeat-5t6i#1,25951528,BLIND,7659497,NaN,complete,NaN,NaN,computer,Desktop or Laptop,Mac OS 10.15.7,Safari 14.1.2,1440x900,1440x820,End of Day 1,SLS,89,A,Pass,End of Day 1,Pass,NaN,NaN,NaN,Pass,NaN,Pass,NaN,schedule_B,schedule_B,24,12,1,Screen 1,Zone1,continue_button,1504,NaN,NaN,,NaN,0,1,0,NaN,NaN,NaN,NaN,NaN,trial_left,blueBox.png,greenBox.png,blueBox.png,al2_uncon.png,44,23,NaN,NaN,0.85,0.15,1,0,0,0,Stable,Stable,1.731,0.853,2,1.202,inexpert
115,1671024697851,14/12/2022 13:31:37,1671024697775,0,14/12/2022 13:31:37,109680,33,task-qrxs,repeat-7g8d#1->-repeat-38fk#1->-repeat-qjz7#1->-repeat-5t6i#1,25951528,BLIND,7659497,NaN,complete,NaN,NaN,computer,Desktop or Laptop,Mac OS 10.15.7,Safari 14.1.2,1440x900,1440x820,End of Day 1,SLS,89,A,Pass,End of Day 1,Pass,NaN,NaN,NaN,Pass,NaN,Pass,NaN,schedule_B,schedule_B,24,12,2,individual,Zone4,timelimit_screen,999,NaN,NaN,,NaN,0,1,0,NaN,NaN,1,NaN,NaN,trial_left,blueBox.png,greenBox.png,blueBox.png,al2_uncon.png,44,23,NaN,NaN,0.85,0.15,1,0,0,0,Stable,Stable,1.731,0.853,2,1.202,inexpert
116,1671024698309,14/12/2022 13:31:38,1671024698235,0,14/12/2022 13:31:38,109680,33,task-qrxs,repeat-7g8d#1->-repeat-38fk#1->-repeat-qjz7#1->-repeat-5t6i#1,25951528,BLIND,7659497,NaN,complete,NaN,NaN,computer,Desktop or Laptop,Mac OS 10.15.7,Safari 14.1.2,1440x900,1440x820,End of Day 1,SLS,89,A,Pass,End of Day 1,Pass,NaN,NaN,NaN,Pass,NaN,Pass,NaN,schedule_B,schedule_B,24,12,3,offer,Zone2,response_button_image,450.000000000015,NaN,NaN,greenBox.png,1,0,1,0,NaN,NaN,NaN,NaN,NaN,trial_left,blueBox.png,greenBox.png,blueBox.png,al2_uncon.png,44,23,NaN,NaN,0.85,0.15,1,0,0,0,Stable,Stable,1.731,0.853,2,1.202,inexpert
117,1671024700296,14/12/2022 13:31:40,1671024700226,0,14/12/2022 13:31:40,109680,33,task-qrxs,repeat-7g8d#1->-repeat-38fk#1->-repeat-qjz7#1->-repeat-5t6i#1,25951528,BLIND,7659497,NaN,complete,NaN,NaN,computer,Desktop or Laptop,Mac OS 10.15.7,Safari 14.1.2,1440x900,1440x820,End of Day 1,SLS,89,A,Pass,End of Day 1,Pass,NaN,NaN,NaN,Pass,NaN,Pass,NaN,schedule_B,schedule_B,24,12,5,feedback_r,Zone7,timelimit_screen,2000,NaN,NaN,,NaN,0,1,0,NaN,NaN,1,NaN,NaN,trial_left,blueBox.png,greenBox.png,blueBox.png,al2_uncon.png,44,23,NaN,NaN,0.85,0.15,1,0,0,0,Stable,Stable,1.731,0.853,2,1.202,inexpert
118,1671024700439,14/12/2022 13:31:40,1671024700376,0,14/12/2022 13:31:40,109680,33,task-qrxs,repeat-7g8d#1->-repeat-38fk#1->-repeat-qjz7#1->-repeat-5t6i#1,25951528,BLIND,7659497,NaN,complete,NaN,NaN,computer,Desktop or Laptop,Mac OS 10.15.7,Safari 14.1.2,1440x900,1440x820,End of Day 1,SLS,89,A,Pass,End of Day 1,Pass,NaN,NaN,NaN,Pass,NaN,Pass,NaN,schedule_B,schedule_B,24,12,6,end,Zone1,timelimit_screen,150,NaN,NaN,,NaN,0,1,0,NaN,NaN,1,NaN,NaN,trial_left,blueBox.png,greenBox.png,blueBox.png,al2_uncon.png,44,23,NaN,NaN,0.85,0.15,1,0,0,0,Stable,Stable,1.731,0.853,2,1.202,inexpert
119,1671024701533,14/12/2022 13:31:41,1671024701462,0,14/12/2022 13:31:41,109680,33,task-qrxs,repeat-7g8d#1->-repeat-38fk#1->-repeat-qjz7#1->-repeat-5t6i#1,25951528,BLIND,7659497,NaN,complete,NaN,NaN,computer,Desktop or Laptop,Mac OS 10.15.7,Safari 14.1.2,1440x900,1440x820,End of Day 1,SLS,89,A,Pass,End of Day 1,Pass,NaN,NaN,NaN,Pass,NaN,Pass,NaN,schedule_B,schedule_B,25,13,1,Screen 1,Zone1,continue_button,1072,NaN,NaN,,NaN,0,1,0,NaN,NaN,NaN,NaN,NaN,trial_left,blueBox.png,blueBox.png,greenBox.png,al2_uncon.png,45,24,NaN,NaN,0.85,0.15,1,1,1,1,Stable,Stable,2.109,1.798,1.508,2.782,inexpert
120,1671024702533,14/12/2022 13:31:42,1671024702459,0,14/12/2022 13:31:42,109680,33,task-qrxs,repeat-7g8d#1->-repeat-38fk#1->-repeat-qjz7#1->-repeat-5t6i#1,25951528,BLIND,7659497,NaN,complete,NaN,NaN,computer,Desktop or Laptop,Mac OS 10.15.7,Safari 14.1.2,1440x900,1440x820,End of Day 1,SLS,89,A,Pass,End of Day 1,Pass,NaN,NaN,NaN,Pass,NaN,Pass,NaN,schedule_B,schedule_B,25,13,2,individual,Zone4,timelimit_screen,1000,NaN,NaN,,NaN,0,1,0,NaN,NaN,1,NaN,NaN,trial_left,blueBox.png,blueBox.png,greenBox.png,al2_uncon.png,45,24,NaN,NaN,0.85,0.15,1,1,1,1,Stable,Stable,2.109,1.798,1.508,2.782,inexpert
121,1671024703511,14/12/2022 13:31:43,1671024703439,0,14/12/2022 13:31:43,109680,33,task-qrxs,repeat-7g8d#1->-repeat-38fk#1->-repeat-qjz7#1->-repeat-5t6i#1,25951528,BLIND,7659497,NaN,complete,NaN,NaN,computer,Desktop or Laptop,Mac OS 10.15.7,Safari 14.1.2,1440x900,1440x820,End of Day 1,SLS,89,A,Pass,End of Day 1,Pass,NaN,NaN,NaN,Pass,NaN,Pass,NaN,schedule_B,schedule_B,25,13,3,offer,bluebox,response_button_image,969.999999999985,NaN,NaN,greenBox.png,1,0,1,0,NaN,NaN,NaN,NaN,NaN,trial_left,blueBox.png,blueBox.png,greenBox.png,al2_uncon.png,45,24,NaN,NaN,0.85,0.15,1,1,1,1,Stable,Stable,2.109,1.798,1.508,2.782,inexpert
122,1671024705500,14/12/2022 13:31:45,1671024705426,0,14/12/2022 13:31:45,109680,33,task-qrxs,repeat-7g8d#1->-repeat-38fk#1->-repeat-qjz7#1->-repeat-5t6i#1,25951528,BLIND,7659497,NaN,complete,NaN,NaN,computer,Desktop or Laptop,Mac OS 10.15.7,Safari 14.1.2,1440x900,1440x820,End of Day 1,SLS,89,A,Pass,End of Day 1,Pass,NaN,NaN,NaN,Pass,NaN,Pass,NaN,schedule_B,schedule_B,25,13,5,feedback_r,Zone7,timelimit_screen,2000,NaN,NaN,,NaN,0,1,0,NaN,NaN,1,NaN,NaN,trial_left,blueBox.png,blueBox.png,greenBox.png,al2_uncon.png,45,24,NaN,NaN,0.85,0.15,1,1,1,1,Stable,Stable,2.109,1.798,1.508,2.782,inexpert
123,1671024705639,14/12/2022 13:31:45,1671024705575,0,14/12/2022 13:31:45,109680,33,task-qrxs,repeat-7g8d#1->-repeat-38fk#1->-repeat-qjz7#1->-repeat-5t6i#1,25951528,BLIND,7659497,NaN,complete,NaN,NaN,computer,Desktop or Laptop,Mac OS 10.15.7,Safari 14.1.2,1440x900,1440x820,End of Day 1,SLS,89,A,Pass,End of Day 1,Pass,NaN,NaN,NaN,Pass,NaN,Pass,NaN,schedule_B,schedule_B,25,13,6,end,Zone1,timelimit_screen,150,NaN,NaN,,NaN,0,1,0,NaN,NaN,1,NaN,NaN,trial_left,blueBox.png,blueBox.png,greenBox.png,al2_uncon.png,45,24,NaN,NaN,0.85,0.15,1,1,1,1,Stable,Stable,2.109,1.798,1.508,2.782,inexpert
124,1671024706686,14/12/2022 13:31:46,1671024706611,0,14/12/2022 13:31:46,109680,33,task-qrxs,repeat-7g8d#1->-repeat-38fk#1->-repeat-qjz7#1->-repeat-5t6i#1,25951528,BLIND,7659497,NaN,complete,NaN,NaN,computer,Desktop or Laptop,Mac OS 10.15.7,Safari 14.1.2,1440x900,1440x820,End of Day 1,SLS,89,A,Pass,End of Day 1,Pass,NaN,NaN,NaN,Pass,NaN,Pass,NaN,schedule_B,schedule_B,26,12,1,Screen 1,Zone1,continue_button,1019,NaN,NaN,,NaN,0,1,0,NaN,NaN,NaN,NaN,NaN,trial_right,blueBox.png,greenBox.png,blueBox.png,al2_uncon.png,46,25,NaN,NaN,0.85,0.15,1,1,1,0,Stable,Stable,2.916,1.294,1.962,2.361,inexpert
125,1671024707655,14/12/2022 13:31:47,1671024707593,0,14/12/2022 13:31:47,109680,33,task-qrxs,repeat-7g8d#1->-repeat-38fk#1->-repeat-qjz7#1->-repeat-5t6i#1,25951528,BLIND,7659497,NaN,complete,NaN,NaN,computer,Desktop or Laptop,Mac OS 10.15.7,Safari 14.1.2,1440x900,1440x820,End of Day 1,SLS,89,A,Pass,End of Day 1,Pass,NaN,NaN,NaN,Pass,NaN,Pass,NaN,schedule_B,schedule_B,26,12,2,individual,Zone4,timelimit_screen,1001,NaN,NaN,,NaN,0,1,0,NaN,NaN,1,NaN,NaN,trial_right,blueBox.png,greenBox.png,blueBox.png,al2_uncon.png,46,25,NaN,NaN,0.85,0.15,1,1,1,0,Stable,Stable,2.916,1.294,1.962,2.361,inexpert
126,1671024708716,14/12/2022 13:31:48,1671024708643,0,14/12/2022 13:31:48,109680,33,task-qrxs,repeat-7g8d#1->-repeat-38fk#1->-repeat-qjz7#1->-repeat-5t6i#1,25951528,BLIND,7659497,NaN,complete,NaN,NaN,computer,Desktop or Laptop,Mac OS 10.15.7,Safari 14.1.2,1440x900,1440x820,End of Day 1,SLS,89,A,Pass,End of Day 1,Pass,NaN,NaN,NaN,Pass,NaN,Pass,NaN,schedule_B,schedule_B,26,12,3,offer,Zone3,response_button_image,1038.99999999999,NaN,NaN,blueBox.png,1,1,0,0,NaN,NaN,NaN,NaN,NaN,trial_right,blueBox.png,greenBox.png,blueBox.png,al2_uncon.png,46,25,NaN,NaN,0.85,0.15,1,1,1,0,Stable,Stable,2.916,1.294,1.962,2.361,inexpert
127,1671024710700,14/12/2022 13:31:50,1671024710626,0,14/12/2022 13:31:50,109680,33,task-qrxs,repeat-7g8d#1->-repeat-38fk#1->-repeat-qjz7#1->-repeat-5t6i#1,25951528,BLIND,7659497,NaN,complete,NaN,NaN,computer,Desktop or Laptop,Mac OS 10.15.7,Safari 14.1.2,1440x900,1440x820,End of Day 1,SLS,89,A,Pass,End of Day 1,Pass,NaN,NaN,NaN,Pass,NaN,Pass,NaN,schedule_B,schedule_B,26,12,5,feedback_r,Zone7,timelimit_screen,2000,NaN,NaN,,NaN,0,1,0,NaN,NaN,1,NaN,NaN,trial_right,blueBox.png,greenBox.png,blueBox.png,al2_uncon.png,46,25,NaN,NaN,0.85,0.15,1,1,1,0,Stable,Stable,2.916,1.294,1.962,2.361,inexpert
128,1671024710837,14/12/2022 13:31:50,1671024710776,0,14/12/2022 13:31:50,109680,33,task-qrxs,repeat-7g8d#1->-repeat-38fk#1->-repeat-qjz7#1->-repeat-5t6i#1,25951528,BLIND,7659497,NaN,complete,NaN,NaN,computer,Desktop or Laptop,Mac OS 10.15.7,Safari 14.1.2,1440x900,1440x820,End of Day 1,SLS,89,A,Pass,End of Day 1,Pass,NaN,NaN,NaN,Pass,NaN,Pass,NaN,schedule_B,schedule_B,26,12,6,end,Zone1,timelimit_screen,150,NaN,NaN,,NaN,0,1,0,NaN,NaN,1,NaN,NaN,trial_right,blueBox.png,greenBox.png,blueBox.png,al2_uncon.png,46,25,NaN,NaN,0.85,0.15,1,1,1,0,Stable,Stable,2.916,1.294,1.962,2.361,inexpert
129,1671024712274,14/12/2022 13:31:52,1671024712198,0,14/12/2022 13:31:52,109680,33,task-qrxs,repeat-7g8d#1->-repeat-38fk#1->-repeat-qjz7#1->-repeat-5t6i#1,25951528,BLIND,7659497,NaN,complete,NaN,NaN,computer,Desktop or Laptop,Mac OS 10.15.7,Safari 14.1.2,1440x900,1440x820,End of Day 1,SLS,89,A,Pass,End of Day 1,Pass,NaN,NaN,NaN,Pass,NaN,Pass,NaN,schedule_B,schedule_B,27,13,1,Screen 1,Zone1,continue_button,1408,NaN,NaN,,NaN,0,1,0,NaN,NaN,NaN,NaN,NaN,trial_right,blueBox.png,blueBox.png,greenBox.png,al2_uncon.png,47,26,NaN,NaN,0.85,0.15,1,0,0,1,Stable,Stable,2.487,1.697,1.13,1.286,inexpert
130,1671024713267,14/12/2022 13:31:53,1671024713193,0,14/12/2022 13:31:53,109680,33,task-qrxs,repeat-7g8d#1->-repeat-38fk#1->-repeat-qjz7#1->-repeat-5t6i#1,25951528,BLIND,7659497,NaN,complete,NaN,NaN,computer,Desktop or Laptop,Mac OS 10.15.7,Safari 14.1.2,1440x900,1440x820,End of Day 1,SLS,89,A,Pass,End of Day 1,Pass,NaN,NaN,NaN,Pass,NaN,Pass,NaN,schedule_B,schedule_B,27,13,2,individual,Zone4,timelimit_screen,1000,NaN,NaN,,NaN,0,1,0,NaN,NaN,1,NaN,NaN,trial_right,blueBox.png,blueBox.png,greenBox.png,al2_uncon.png,47,26,NaN,NaN,0.85,0.15,1,0,0,1,Stable,Stable,2.487,1.697,1.13,1.286,inexpert
131,1671024714153,14/12/2022 13:31:54,1671024714087,0,14/12/2022 13:31:54,109680,33,task-qrxs,repeat-7g8d#1->-repeat-38fk#1->-repeat-qjz7#1->-repeat-5t6i#1,25951528,BLIND,7659497,NaN,complete,NaN,NaN,computer,Desktop or Laptop,Mac OS 10.15.7,Safari 14.1.2,1440x900,1440x820,End of Day 1,SLS,89,A,Pass,End of Day 1,Pass,NaN,NaN,NaN,Pass,NaN,Pass,NaN,schedule_B,schedule_B,27,13,3,offer,Zone3,response_button_image,884,NaN,NaN,greenBox.png,1,0,1,0,NaN,NaN,NaN,NaN,NaN,trial_right,blueBox.png,blueBox.png,greenBox.png,al2_uncon.png,47,26,NaN,NaN,0.85,0.15,1,0,0,1,Stable,Stable,2.487,1.697,1.13,1.286,inexpert
132,1671024716139,14/12/2022 13:31:56,1671024716076,0,14/12/2022 13:31:56,109680,33,task-qrxs,repeat-7g8d#1->-repeat-38fk#1->-repeat-qjz7#1->-repeat-5t6i#1,25951528,BLIND,7659497,NaN,complete,NaN,NaN,computer,Desktop or Laptop,Mac OS 10.15.7,Safari 14.1.2,1440x900,1440x820,End of Day 1,SLS,89,A,Pass,End of Day 1,Pass,NaN,NaN,NaN,Pass,NaN,Pass,NaN,schedule_B,schedule_B,27,13,5,feedback_r,Zone7,timelimit_screen,2000,NaN,NaN,,NaN,0,1,0,NaN,NaN,1,NaN,NaN,trial_right,blueBox.png,blueBox.png,greenBox.png,al2_uncon.png,47,26,NaN,NaN,0.85,0.15,1,0,0,1,Stable,Stable,2.487,1.697,1.13,1.286,inexpert
133,1671024716285,14/12/2022 13:31:56,1671024716226,0,14/12/2022 13:31:56,109680,33,task-qrxs,repeat-7g8d#1->-repeat-38fk#1->-repeat-qjz7#1->-repeat-5t6i#1,25951528,BLIND,7659497,NaN,complete,NaN,NaN,computer,Desktop or Laptop,Mac OS 10.15.7,Safari 14.1.2,1440x900,1440x820,End of Day 1,SLS,89,A,Pass,End of Day 1,Pass,NaN,NaN,NaN,Pass,NaN,Pass,NaN,schedule_B,schedule_B,27,13,6,end,Zone1,timelimit_screen,150,NaN,NaN,,NaN,0,1,0,NaN,NaN,1,NaN,NaN,trial_right,blueBox.png,blueBox.png,greenBox.png,al2_uncon.png,47,26,NaN,NaN,0.85,0.15,1,0,0,1,Stable,Stable,2.487,1.697,1.13,1.286,inexpert
134,1671024717573,14/12/2022 13:31:57,1671024717498,0,14/12/2022 13:31:57,109680,33,task-qrxs,repeat-7g8d#1->-repeat-38fk#1->-repeat-qjz7#1->-repeat-5t6i#1,25951528,BLIND,7659497,NaN,complete,NaN,NaN,computer,Desktop or Laptop,Mac OS 10.15.7,Safari 14.1.2,1440x900,1440x820,End of Day 1,SLS,89,A,Pass,End of Day 1,Pass,NaN,NaN,NaN,Pass,NaN,Pass,NaN,schedule_B,schedule_B,28,14,1,Screen 1,Zone1,continue_button,1257,NaN,NaN,,NaN,0,1,0,NaN,NaN,NaN,NaN,NaN,trial_left,blueBox.png,greenBox.png,blueBox.png,al2_uncon.png,48,27,NaN,NaN,0.85,0.15,1,0,0,0,Stable,Stable,3.824,1.634,0.992,2.244,inexpert
135,1671024718561,14/12/2022 13:31:58,1671024718492,0,14/12/2022 13:31:58,109680,33,task-qrxs,repeat-7g8d#1->-repeat-38fk#1->-repeat-qjz7#1->-repeat-5t6i#1,25951528,BLIND,7659497,NaN,complete,NaN,NaN,computer,Desktop or Laptop,Mac OS 10.15.7,Safari 14.1.2,1440x900,1440x820,End of Day 1,SLS,89,A,Pass,End of Day 1,Pass,NaN,NaN,NaN,Pass,NaN,Pass,NaN,schedule_B,schedule_B,28,14,2,individual,Zone4,timelimit_screen,1000,NaN,NaN,,NaN,0,1,0,NaN,NaN,1,NaN,NaN,trial_left,blueBox.png,greenBox.png,blueBox.png,al2_uncon.png,48,27,NaN,NaN,0.85,0.15,1,0,0,0,Stable,Stable,3.824,1.634,0.992,2.244,inexpert
136,1671024719157,14/12/2022 13:31:59,1671024719091,0,14/12/2022 13:31:59,109680,33,task-qrxs,repeat-7g8d#1->-repeat-38fk#1->-repeat-qjz7#1->-repeat-5t6i#1,25951528,BLIND,7659497,NaN,complete,NaN,NaN,computer,Desktop or Laptop,Mac OS 10.15.7,Safari 14.1.2,1440x900,1440x820,End of Day 1,SLS,89,A,Pass,End of Day 1,Pass,NaN,NaN,NaN,Pass,NaN,Pass,NaN,schedule_B,schedule_B,28,14,3,offer,Zone2,response_button_image,589,NaN,NaN,greenBox.png,1,0,1,0,NaN,NaN,NaN,NaN,NaN,trial_left,blueBox.png,greenBox.png,blueBox.png,al2_uncon.png,48,27,NaN,NaN,0.85,0.15,1,0,0,0,Stable,Stable,3.824,1.634,0.992,2.244,inexpert
137,1671024721151,14/12/2022 13:32:01,1671024721076,0,14/12/2022 13:32:01,109680,33,task-qrxs,repeat-7g8d#1->-repeat-38fk#1->-repeat-qjz7#1->-repeat-5t6i#1,25951528,BLIND,7659497,NaN,complete,NaN,NaN,computer,Desktop or Laptop,Mac OS 10.15.7,Safari 14.1.2,1440x900,1440x820,End of Day 1,SLS,89,A,Pass,End of Day 1,Pass,NaN,NaN,NaN,Pass,NaN,Pass,NaN,schedule_B,schedule_B,28,14,5,feedback_r,Zone7,timelimit_screen,2000,NaN,NaN,,NaN,0,1,0,NaN,NaN,1,NaN,NaN,trial_left,blueBox.png,greenBox.png,blueBox.png,al2_uncon.png,48,27,NaN,NaN,0.85,0.15,1,0,0,0,Stable,Stable,3.824,1.634,0.992,2.244,inexpert
138,1671024721288,14/12/2022 13:32:01,1671024721226,0,14/12/2022 13:32:01,109680,33,task-qrxs,repeat-7g8d#1->-repeat-38fk#1->-repeat-qjz7#1->-repeat-5t6i#1,25951528,BLIND,7659497,NaN,complete,NaN,NaN,computer,Desktop or Laptop,Mac OS 10.15.7,Safari 14.1.2,1440x900,1440x820,End of Day 1,SLS,89,A,Pass,End of Day 1,Pass,NaN,NaN,NaN,Pass,NaN,Pass,NaN,schedule_B,schedule_B,28,14,6,end,Zone1,timelimit_screen,150,NaN,NaN,,NaN,0,1,0,NaN,NaN,1,NaN,NaN,trial_left,blueBox.png,greenBox.png,blueBox.png,al2_uncon.png,48,27,NaN,NaN,0.85,0.15,1,0,0,0,Stable,Stable,3.824,1.634,0.992,2.244,inexpert
139,1671024721985,14/12/2022 13:32:01,1671024721902,0,14/12/2022 13:32:01,109680,33,task-qrxs,repeat-7g8d#1->-repeat-38fk#1->-repeat-qjz7#1->-repeat-5t6i#1,25951528,BLIND,7659497,NaN,complete,NaN,NaN,computer,Desktop or Laptop,Mac OS 10.15.7,Safari 14.1.2,1440x900,1440x820,End of Day 1,SLS,89,A,Pass,End of Day 1,Pass,NaN,NaN,NaN,Pass,NaN,Pass,NaN,schedule_B,schedule_B,29,14,1,Screen 1,Zone1,continue_button,661.000000000029,NaN,NaN,,NaN,0,1,0,NaN,NaN,NaN,NaN,NaN,trial_right,blueBox.png,blueBox.png,greenBox.png,al2_uncon.png,49,28,NaN,NaN,0.85,0.15,1,0,0,1,Stable,Stable,2.84,1.937,1.723,2.815,inexpert
140,1671024722974,14/12/2022 13:32:02,1671024722892,0,14/12/2022 13:32:02,109680,33,task-qrxs,repeat-7g8d#1->-repeat-38fk#1->-repeat-qjz7#1->-repeat-5t6i#1,25951528,BLIND,7659497,NaN,complete,NaN,NaN,computer,Desktop or Laptop,Mac OS 10.15.7,Safari 14.1.2,1440x900,1440x820,End of Day 1,SLS,89,A,Pass,End of Day 1,Pass,NaN,NaN,NaN,Pass,NaN,Pass,NaN,schedule_B,schedule_B,29,14,2,individual,Zone4,timelimit_screen,999,NaN,NaN,,NaN,0,1,0,NaN,NaN,1,NaN,NaN,trial_right,blueBox.png,blueBox.png,greenBox.png,al2_uncon.png,49,28,NaN,NaN,0.85,0.15,1,0,0,1,Stable,Stable,2.84,1.937,1.723,2.815,inexpert
141,1671024723638,14/12/2022 13:32:03,1671024723574,0,14/12/2022 13:32:03,109680,33,task-qrxs,repeat-7g8d#1->-repeat-38fk#1->-repeat-qjz7#1->-repeat-5t6i#1,25951528,BLIND,7659497,NaN,complete,NaN,NaN,computer,Desktop or Laptop,Mac OS 10.15.7,Safari 14.1.2,1440x900,1440x820,End of Day 1,SLS,89,A,Pass,End of Day 1,Pass,NaN,NaN,NaN,Pass,NaN,Pass,NaN,schedule_B,schedule_B,29,14,3,offer,Zone3,response_button_image,675,NaN,NaN,greenBox.png,1,0,1,0,NaN,NaN,NaN,NaN,NaN,trial_right,blueBox.png,blueBox.png,greenBox.png,al2_uncon.png,49,28,NaN,NaN,0.85,0.15,1,0,0,1,Stable,Stable,2.84,1.937,1.723,2.815,inexpert
142,1671024725631,14/12/2022 13:32:05,1671024725559,0,14/12/2022 13:32:05,109680,33,task-qrxs,repeat-7g8d#1->-repeat-38fk#1->-repeat-qjz7#1->-repeat-5t6i#1,25951528,BLIND,7659497,NaN,complete,NaN,NaN,computer,Desktop or Laptop,Mac OS 10.15.7,Safari 14.1.2,1440x900,1440x820,End of Day 1,SLS,89,A,Pass,End of Day 1,Pass,NaN,NaN,NaN,Pass,NaN,Pass,NaN,schedule_B,schedule_B,29,14,5,feedback_r,Zone7,timelimit_screen,2000,NaN,NaN,,NaN,0,1,0,NaN,NaN,1,NaN,NaN,trial_right,blueBox.png,blueBox.png,greenBox.png,al2_uncon.png,49,28,NaN,NaN,0.85,0.15,1,0,0,1,Stable,Stable,2.84,1.937,1.723,2.815,inexpert
143,1671024725776,14/12/2022 13:32:05,1671024725709,0,14/12/2022 13:32:05,109680,33,task-qrxs,repeat-7g8d#1->-repeat-38fk#1->-repeat-qjz7#1->-repeat-5t6i#1,25951528,BLIND,7659497,NaN,complete,NaN,NaN,computer,Desktop or Laptop,Mac OS 10.15.7,Safari 14.1.2,1440x900,1440x820,End of Day 1,SLS,89,A,Pass,End of Day 1,Pass,NaN,NaN,NaN,Pass,NaN,Pass,NaN,schedule_B,schedule_B,29,14,6,end,Zone1,timelimit_screen,150,NaN,NaN,,NaN,0,1,0,NaN,NaN,1,NaN,NaN,trial_right,blueBox.png,blueBox.png,greenBox.png,al2_uncon.png,49,28,NaN,NaN,0.85,0.15,1,0,0,1,Stable,Stable,2.84,1.937,1.723,2.815,inexpert
144,1671024726559,14/12/2022 13:32:06,1671024726489,0,14/12/2022 13:32:06,109680,33,task-qrxs,repeat-7g8d#1->-repeat-38fk#1->-repeat-qjz7#1->-repeat-5t6i#1,25951528,BLIND,7659497,NaN,complete,NaN,NaN,computer,Desktop or Laptop,Mac OS 10.15.7,Safari 14.1.2,1440x900,1440x820,End of Day 1,SLS,89,A,Pass,End of Day 1,Pass,NaN,NaN,NaN,Pass,NaN,Pass,NaN,schedule_B,schedule_B,30,15,1,Screen 1,Zone1,continue_button,765,NaN,NaN,,NaN,0,1,0,NaN,NaN,NaN,NaN,NaN,trial_right,blueBox.png,blueBox.png,greenBox.png,al2_uncon.png,50,29,NaN,NaN,0.85,0.15,1,0,0,1,Stable,Stable,2.941,1.71,0.664,1.336,inexpert
145,1671024727543,14/12/2022 13:32:07,1671024727476,0,14/12/2022 13:32:07,109680,33,task-qrxs,repeat-7g8d#1->-repeat-38fk#1->-repeat-qjz7#1->-repeat-5t6i#1,25951528,BLIND,7659497,NaN,complete,NaN,NaN,computer,Desktop or Laptop,Mac OS 10.15.7,Safari 14.1.2,1440x900,1440x820,End of Day 1,SLS,89,A,Pass,End of Day 1,Pass,NaN,NaN,NaN,Pass,NaN,Pass,NaN,schedule_B,schedule_B,30,15,2,individual,Zone4,timelimit_screen,1001,NaN,NaN,,NaN,0,1,0,NaN,NaN,1,NaN,NaN,trial_right,blueBox.png,blueBox.png,greenBox.png,al2_uncon.png,50,29,NaN,NaN,0.85,0.15,1,0,0,1,Stable,Stable,2.941,1.71,0.664,1.336,inexpert
146,1671024728576,14/12/2022 13:32:08,1671024728514,0,14/12/2022 13:32:08,109680,33,task-qrxs,repeat-7g8d#1->-repeat-38fk#1->-repeat-qjz7#1->-repeat-5t6i#1,25951528,BLIND,7659497,NaN,complete,NaN,NaN,computer,Desktop or Laptop,Mac OS 10.15.7,Safari 14.1.2,1440x900,1440x820,End of Day 1,SLS,89,A,Pass,End of Day 1,Pass,NaN,NaN,NaN,Pass,NaN,Pass,NaN,schedule_B,schedule_B,30,15,3,offer,Zone3,response_button_image,1029.00000000003,NaN,NaN,greenBox.png,1,0,1,0,NaN,NaN,NaN,NaN,NaN,trial_right,blueBox.png,blueBox.png,greenBox.png,al2_uncon.png,50,29,NaN,NaN,0.85,0.15,1,0,0,1,Stable,Stable,2.941,1.71,0.664,1.336,inexpert
147,1671024730592,14/12/2022 13:32:10,1671024730509,0,14/12/2022 13:32:10,109680,33,task-qrxs,repeat-7g8d#1->-repeat-38fk#1->-repeat-qjz7#1->-repeat-5t6i#1,25951528,BLIND,7659497,NaN,complete,NaN,NaN,computer,Desktop or Laptop,Mac OS 10.15.7,Safari 14.1.2,1440x900,1440x820,End of Day 1,SLS,89,A,Pass,End of Day 1,Pass,NaN,NaN,NaN,Pass,NaN,Pass,NaN,schedule_B,schedule_B,30,15,5,feedback_r,Zone7,timelimit_screen,2000,NaN,NaN,,NaN,0,1,0,NaN,NaN,1,NaN,NaN,trial_right,blueBox.png,blueBox.png,greenBox.png,al2_uncon.png,50,29,NaN,NaN,0.85,0.15,1,0,0,1,Stable,Stable,2.941,1.71,0.664,1.336,inexpert
148,1671024730728,14/12/2022 13:32:10,1671024730659,0,14/12/2022 13:32:10,109680,33,task-qrxs,repeat-7g8d#1->-repeat-38fk#1->-repeat-qjz7#1->-repeat-5t6i#1,25951528,BLIND,7659497,NaN,complete,NaN,NaN,computer,Desktop or Laptop,Mac OS 10.15.7,Safari 14.1.2,1440x900,1440x820,End of Day 1,SLS,89,A,Pass,End of Day 1,Pass,NaN,NaN,NaN,Pass,NaN,Pass,NaN,schedule_B,schedule_B,30,15,6,end,Zone1,timelimit_screen,150,NaN,NaN,,NaN,0,1,0,NaN,NaN,1,NaN,NaN,trial_right,blueBox.png,blueBox.png,greenBox.png,al2_uncon.png,50,29,NaN,NaN,0.85,0.15,1,0,0,1,Stable,Stable,2.941,1.71,0.664,1.336,inexpert
149,1671024731672,14/12/2022 13:32:11,1671024731598,0,14/12/2022 13:32:11,109680,33,task-qrxs,repeat-7g8d#1->-repeat-38fk#1->-repeat-qjz7#1->-repeat-5t6i#1,25951528,BLIND,7659497,NaN,complete,NaN,NaN,computer,Desktop or Laptop,Mac OS 10.15.7,Safari 14.1.2,1440x900,1440x820,End of Day 1,SLS,89,A,Pass,End of Day 1,Pass,NaN,NaN,NaN,Pass,NaN,Pass,NaN,schedule_B,schedule_B,31,15,1,Screen 1,Zone1,continue_button,922.999999999971,NaN,NaN,,NaN,0,1,0,NaN,NaN,NaN,NaN,NaN,trial_left,blueBox.png,greenBox.png,blueBox.png,al2_uncon.png,61,30,NaN,NaN,0.85,0.15,1,0,0,0,Stable,Stable,2.79,1.735,0.601,2.345,inexpert
150,1671024732649,14/12/2022 13:32:12,1671024732592,0,14/12/2022 13:32:12,109680,33,task-qrxs,repeat-7g8d#1->-repeat-38fk#1->-repeat-qjz7#1->-repeat-5t6i#1,25951528,BLIND,7659497,NaN,complete,NaN,NaN,computer,Desktop or Laptop,Mac OS 10.15.7,Safari 14.1.2,1440x900,1440x820,End of Day 1,SLS,89,A,Pass,End of Day 1,Pass,NaN,NaN,NaN,Pass,NaN,Pass,NaN,schedule_B,schedule_B,31,15,2,individual,Zone4,timelimit_screen,1000,NaN,NaN,,NaN,0,1,0,NaN,NaN,1,NaN,NaN,trial_left,blueBox.png,greenBox.png,blueBox.png,al2_uncon.png,61,30,NaN,NaN,0.85,0.15,1,0,0,0,Stable,Stable,2.79,1.735,0.601,2.345,inexpert
151,1671024733281,14/12/2022 13:32:13,1671024733213,0,14/12/2022 13:32:13,109680,33,task-qrxs,repeat-7g8d#1->-repeat-38fk#1->-repeat-qjz7#1->-repeat-5t6i#1,25951528,BLIND,7659497,NaN,complete,NaN,NaN,computer,Desktop or Laptop,Mac OS 10.15.7,Safari 14.1.2,1440x900,1440x820,End of Day 1,SLS,89,A,Pass,End of Day 1,Pass,NaN,NaN,NaN,Pass,NaN,Pass,NaN,schedule_B,schedule_B,31,15,3,offer,Zone2,response_button_image,610,NaN,NaN,greenBox.png,1,0,1,0,NaN,NaN,NaN,NaN,NaN,trial_left,blueBox.png,greenBox.png,blueBox.png,al2_uncon.png,61,30,NaN,NaN,0.85,0.15,1,0,0,0,Stable,Stable,2.79,1.735,0.601,2.345,inexpert
152,1671024735284,14/12/2022 13:32:15,1671024735209,0,14/12/2022 13:32:15,109680,33,task-qrxs,repeat-7g8d#1->-repeat-38fk#1->-repeat-qjz7#1->-repeat-5t6i#1,25951528,BLIND,7659497,NaN,complete,NaN,NaN,computer,Desktop or Laptop,Mac OS 10.15.7,Safari 14.1.2,1440x900,1440x820,End of Day 1,SLS,89,A,Pass,End of Day 1,Pass,NaN,NaN,NaN,Pass,NaN,Pass,NaN,schedule_B,schedule_B,31,15,5,feedback_r,Zone7,timelimit_screen,2000,NaN,NaN,,NaN,0,1,0,NaN,NaN,1,NaN,NaN,trial_left,blueBox.png,greenBox.png,blueBox.png,al2_uncon.png,61,30,NaN,NaN,0.85,0.15,1,0,0,0,Stable,Stable,2.79,1.735,0.601,2.345,inexpert
153,1671024735427,14/12/2022 13:32:15,1671024735359,0,14/12/2022 13:32:15,109680,33,task-qrxs,repeat-7g8d#1->-repeat-38fk#1->-repeat-qjz7#1->-repeat-5t6i#1,25951528,BLIND,7659497,NaN,complete,NaN,NaN,computer,Desktop or Laptop,Mac OS 10.15.7,Safari 14.1.2,1440x900,1440x820,End of Day 1,SLS,89,A,Pass,End of Day 1,Pass,NaN,NaN,NaN,Pass,NaN,Pass,NaN,schedule_B,schedule_B,31,15,6,end,Zone1,timelimit_screen,150,NaN,NaN,,NaN,0,1,0,NaN,NaN,1,NaN,NaN,trial_left,blueBox.png,greenBox.png,blueBox.png,al2_uncon.png,61,30,NaN,NaN,0.85,0.15,1,0,0,0,Stable,Stable,2.79,1.735,0.601,2.345,inexpert
154,1671024736100,14/12/2022 13:32:16,1671024736024,0,14/12/2022 13:32:16,109680,33,task-qrxs,repeat-7g8d#1->-repeat-38fk#1->-repeat-qjz7#1->-repeat-5t6i#1,25951528,BLIND,7659497,NaN,complete,NaN,NaN,computer,Desktop or Laptop,Mac OS 10.15.7,Safari 14.1.2,1440x900,1440x820,End of Day 1,SLS,89,A,Pass,End of Day 1,Pass,NaN,NaN,NaN,Pass,NaN,Pass,NaN,schedule_B,schedule_B,32,16,1,Screen 1,Zone1,continue_button,651,NaN,NaN,,NaN,0,1,0,NaN,NaN,NaN,NaN,NaN,trial_right,blueBox.png,greenBox.png,blueBox.png,al2_uncon.png,62,31,NaN,NaN,0.85,0.85,1,1,1,0,Volatile,Volatile,2.538,1.672,1.143,1.555,inexpert
155,1671024737076,14/12/2022 13:32:17,1671024737009,0,14/12/2022 13:32:17,109680,33,task-qrxs,repeat-7g8d#1->-repeat-38fk#1->-repeat-qjz7#1->-repeat-5t6i#1,25951528,BLIND,7659497,NaN,complete,NaN,NaN,computer,Desktop or Laptop,Mac OS 10.15.7,Safari 14.1.2,1440x900,1440x820,End of Day 1,SLS,89,A,Pass,End of Day 1,Pass,NaN,NaN,NaN,Pass,NaN,Pass,NaN,schedule_B,schedule_B,32,16,2,individual,Zone4,timelimit_screen,1000,NaN,NaN,,NaN,0,1,0,NaN,NaN,1,NaN,NaN,trial_right,blueBox.png,greenBox.png,blueBox.png,al2_uncon.png,62,31,NaN,NaN,0.85,0.85,1,1,1,0,Volatile,Volatile,2.538,1.672,1.143,1.555,inexpert
156,1671024737818,14/12/2022 13:32:17,1671024737745,0,14/12/2022 13:32:17,109680,33,task-qrxs,repeat-7g8d#1->-repeat-38fk#1->-repeat-qjz7#1->-repeat-5t6i#1,25951528,BLIND,7659497,NaN,complete,NaN,NaN,computer,Desktop or Laptop,Mac OS 10.15.7,Safari 14.1.2,1440x900,1440x820,End of Day 1,SLS,89,A,Pass,End of Day 1,Pass,NaN,NaN,NaN,Pass,NaN,Pass,NaN,schedule_B,schedule_B,32,16,3,offer,Zone3,response_button_image,729,NaN,NaN,blueBox.png,1,1,0,0,NaN,NaN,NaN,NaN,NaN,trial_right,blueBox.png,greenBox.png,blueBox.png,al2_uncon.png,62,31,NaN,NaN,0.85,0.85,1,1,1,0,Volatile,Volatile,2.538,1.672,1.143,1.555,inexpert
157,1671024739818,14/12/2022 13:32:19,1671024739742,0,14/12/2022 13:32:19,109680,33,task-qrxs,repeat-7g8d#1->-repeat-38fk#1->-repeat-qjz7#1->-repeat-5t6i#1,25951528,BLIND,7659497,NaN,complete,NaN,NaN,computer,Desktop or Laptop,Mac OS 10.15.7,Safari 14.1.2,1440x900,1440x820,End of Day 1,SLS,89,A,Pass,End of Day 1,Pass,NaN,NaN,NaN,Pass,NaN,Pass,NaN,schedule_B,schedule_B,32,16,5,feedback_r,Zone7,timelimit_screen,2000,NaN,NaN,,NaN,0,1,0,NaN,NaN,1,NaN,NaN,trial_right,blueBox.png,greenBox.png,blueBox.png,al2_uncon.png,62,31,NaN,NaN,0.85,0.85,1,1,1,0,Volatile,Volatile,2.538,1.672,1.143,1.555,inexpert
158,1671024739955,14/12/2022 13:32:19,1671024739891,0,14/12/2022 13:32:19,109680,33,task-qrxs,repeat-7g8d#1->-repeat-38fk#1->-repeat-qjz7#1->-repeat-5t6i#1,25951528,BLIND,7659497,NaN,complete,NaN,NaN,computer,Desktop or Laptop,Mac OS 10.15.7,Safari 14.1.2,1440x900,1440x820,End of Day 1,SLS,89,A,Pass,End of Day 1,Pass,NaN,NaN,NaN,Pass,NaN,Pass,NaN,schedule_B,schedule_B,32,16,6,end,Zone1,timelimit_screen,150,NaN,NaN,,NaN,0,1,0,NaN,NaN,1,NaN,NaN,trial_right,blueBox.png,greenBox.png,blueBox.png,al2_uncon.png,62,31,NaN,NaN,0.85,0.85,1,1,1,0,Volatile,Volatile,2.538,1.672,1.143,1.555,inexpert
159,1671024741064,14/12/2022 13:32:21,1671024740997,0,14/12/2022 13:32:20,109680,33,task-qrxs,repeat-7g8d#1->-repeat-38fk#1->-repeat-qjz7#1->-repeat-5t6i#1,25951528,BLIND,7659497,NaN,complete,NaN,NaN,computer,Desktop or Laptop,Mac OS 10.15.7,Safari 14.1.2,1440x900,1440x820,End of Day 1,SLS,89,A,Pass,End of Day 1,Pass,NaN,NaN,NaN,Pass,NaN,Pass,NaN,schedule_B,schedule_B,33,16,1,Screen 1,Zone1,continue_button,1091,NaN,NaN,,NaN,0,1,0,NaN,NaN,NaN,NaN,NaN,trial_left,blueBox.png,greenBox.png,blueBox.png,al2_uncon.png,63,32,NaN,NaN,0.85,0.85,1,0,0,0,Volatile,Volatile,2.739,1.13,0.815,1.387,inexpert
160,1671024742086,14/12/2022 13:32:22,1671024741992,0,14/12/2022 13:32:21,109680,33,task-qrxs,repeat-7g8d#1->-repeat-38fk#1->-repeat-qjz7#1->-repeat-5t6i#1,25951528,BLIND,7659497,NaN,complete,NaN,NaN,computer,Desktop or Laptop,Mac OS 10.15.7,Safari 14.1.2,1440x900,1440x820,End of Day 1,SLS,89,A,Pass,End of Day 1,Pass,NaN,NaN,NaN,Pass,NaN,Pass,NaN,schedule_B,schedule_B,33,16,2,individual,Zone4,timelimit_screen,1000,NaN,NaN,,NaN,0,1,0,NaN,NaN,1,NaN,NaN,trial_left,blueBox.png,greenBox.png,blueBox.png,al2_uncon.png,63,32,NaN,NaN,0.85,0.85,1,0,0,0,Volatile,Volatile,2.739,1.13,0.815,1.387,inexpert
161,1671024742980,14/12/2022 13:32:22,1671024742910,0,14/12/2022 13:32:22,109680,33,task-qrxs,repeat-7g8d#1->-repeat-38fk#1->-repeat-qjz7#1->-repeat-5t6i#1,25951528,BLIND,7659497,NaN,complete,NaN,NaN,computer,Desktop or Laptop,Mac OS 10.15.7,Safari 14.1.2,1440x900,1440x820,End of Day 1,SLS,89,A,Pass,End of Day 1,Pass,NaN,NaN,NaN,Pass,NaN,Pass,NaN,schedule_B,schedule_B,33,16,3,offer,Zone2,response_button_image,908,NaN,NaN,greenBox.png,1,0,1,0,NaN,NaN,NaN,NaN,NaN,trial_left,blueBox.png,greenBox.png,blueBox.png,al2_uncon.png,63,32,NaN,NaN,0.85,0.85,1,0,0,0,Volatile,Volatile,2.739,1.13,0.815,1.387,inexpert
162,1671024744978,14/12/2022 13:32:24,1671024744892,0,14/12/2022 13:32:24,109680,33,task-qrxs,repeat-7g8d#1->-repeat-38fk#1->-repeat-qjz7#1->-repeat-5t6i#1,25951528,BLIND,7659497,NaN,complete,NaN,NaN,computer,Desktop or Laptop,Mac OS 10.15.7,Safari 14.1.2,1440x900,1440x820,End of Day 1,SLS,89,A,Pass,End of Day 1,Pass,NaN,NaN,NaN,Pass,NaN,Pass,NaN,schedule_B,schedule_B,33,16,5,feedback_r,Zone7,timelimit_screen,2000,NaN,NaN,,NaN,0,1,0,NaN,NaN,1,NaN,NaN,trial_left,blueBox.png,greenBox.png,blueBox.png,al2_uncon.png,63,32,NaN,NaN,0.85,0.85,1,0,0,0,Volatile,Volatile,2.739,1.13,0.815,1.387,inexpert
163,1671024745103,14/12/2022 13:32:25,1671024745042,0,14/12/2022 13:32:25,109680,33,task-qrxs,repeat-7g8d#1->-repeat-38fk#1->-repeat-qjz7#1->-repeat-5t6i#1,25951528,BLIND,7659497,NaN,complete,NaN,NaN,computer,Desktop or Laptop,Mac OS 10.15.7,Safari 14.1.2,1440x900,1440x820,End of Day 1,SLS,89,A,Pass,End of Day 1,Pass,NaN,NaN,NaN,Pass,NaN,Pass,NaN,schedule_B,schedule_B,33,16,6,end,Zone1,timelimit_screen,150,NaN,NaN,,NaN,0,1,0,NaN,NaN,1,NaN,NaN,trial_left,blueBox.png,greenBox.png,blueBox.png,al2_uncon.png,63,32,NaN,NaN,0.85,0.85,1,0,0,0,Volatile,Volatile,2.739,1.13,0.815,1.387,inexpert
164,1671024745994,14/12/2022 13:32:25,1671024745928,0,14/12/2022 13:32:25,109680,33,task-qrxs,repeat-7g8d#1->-repeat-38fk#1->-repeat-qjz7#1->-repeat-5t6i#1,25951528,BLIND,7659497,NaN,complete,NaN,NaN,computer,Desktop or Laptop,Mac OS 10.15.7,Safari 14.1.2,1440x900,1440x820,End of Day 1,SLS,89,A,Pass,End of Day 1,Pass,NaN,NaN,NaN,Pass,NaN,Pass,NaN,schedule_B,schedule_B,34,17,1,Screen 1,Zone1,continue_button,870,NaN,NaN,,NaN,0,1,0,NaN,NaN,NaN,NaN,NaN,trial_left,blueBox.png,blueBox.png,greenBox.png,al2_uncon.png,64,33,NaN,NaN,0.85,0.85,1,1,1,1,Volatile,Volatile,3.672,0.828,0.513,2.059,inexpert
165,1671024746999,14/12/2022 13:32:26,1671024746926,0,14/12/2022 13:32:26,109680,33,task-qrxs,repeat-7g8d#1->-repeat-38fk#1->-repeat-qjz7#1->-repeat-5t6i#1,25951528,BLIND,7659497,NaN,complete,NaN,NaN,computer,Desktop or Laptop,Mac OS 10.15.7,Safari 14.1.2,1440x900,1440x820,End of Day 1,SLS,89,A,Pass,End of Day 1,Pass,NaN,NaN,NaN,Pass,NaN,Pass,NaN,schedule_B,schedule_B,34,17,2,individual,Zone4,timelimit_screen,1000,NaN,NaN,,NaN,0,1,0,NaN,NaN,1,NaN,NaN,trial_left,blueBox.png,blueBox.png,greenBox.png,al2_uncon.png,64,33,NaN,NaN,0.85,0.85,1,1,1,1,Volatile,Volatile,3.672,0.828,0.513,2.059,inexpert
166,1671024748046,14/12/2022 13:32:28,1671024747978,0,14/12/2022 13:32:27,109680,33,task-qrxs,repeat-7g8d#1->-repeat-38fk#1->-repeat-qjz7#1->-repeat-5t6i#1,25951528,BLIND,7659497,NaN,complete,NaN,NaN,computer,Desktop or Laptop,Mac OS 10.15.7,Safari 14.1.2,1440x900,1440x820,End of Day 1,SLS,89,A,Pass,End of Day 1,Pass,NaN,NaN,NaN,Pass,NaN,Pass,NaN,schedule_B,schedule_B,34,17,3,offer,Zone2,response_button_image,1044,NaN,NaN,blueBox.png,1,1,0,0,NaN,NaN,NaN,NaN,NaN,trial_left,blueBox.png,blueBox.png,greenBox.png,al2_uncon.png,64,33,NaN,NaN,0.85,0.85,1,1,1,1,Volatile,Volatile,3.672,0.828,0.513,2.059,inexpert
