EventIndex,UTCTimestamp,UTCDate,LocalTimestamp,LocalTimezone,LocalDate,ExperimentID,ExperimentVersion,TreeNodeKey,RepeatKey,ScheduleID,ParticipantPublicID,ParticipantPrivateID,ParticipantStartingGroup,ParticipantStatus,ParticipantCompletionCode,ParticipantExternalSessionID,ParticipantDeviceType,ParticipantDevice,ParticipantOS,ParticipantBrowser,ParticipantMonitorSize,ParticipantViewportSize,Checkpoint,TaskName,TaskVersion,randomiser_6z9f,branch_kxy7,checkpoint_tqwf,branch_rtog,branch_7dgx,checkpoint_mqen,branch_yx2c,branch_3n8o,branch_f1s6,branch_x6l7,branch_21hs,Spreadsheet,SpreadsheetName,SpreadsheetRow,TrialNumber,ScreenNumber,ScreenName,ZoneName,ZoneType,ReactionTime,ReactionOnset,ResponseType,Response,Attempt,Correct,Incorrect,Dishonest,XCoordinate,YCoordinate,TimedOut,randomise_blocks,randomise_trials,display,ANSWER,left_button,right_button,advice,orderno,trialno,ShowProgressBar,image,prob_blue_corr,prob_group_corr,corr_ans,group_corr,group_choice,blue_pos,indiv_vol,soc_vol,ITI_1,ITI_2,ITI_3,ITI_4,condition
1,1670940093585,13/12/2022 14:01:33,1670940093376,0,13/12/2022 14:01:33,109680,33,task-xjip,repeat-7g8d#1->-repeat-38fk#1,25915846,BLIND,7659497,NaN,complete,NaN,NaN,computer,Desktop or Laptop,Mac OS 10.15.7,Safari 14.1.2,1440x900,1440x820,End of Day 1,SLS,89,A,Pass,End of Day 1,Pass,NaN,NaN,NaN,Pass,NaN,Pass,NaN,schedule_A,,NaN,NaN,NaN,,,,NaN,NaN,NaN,,NaN,0,1,0,NaN,NaN,NaN,NaN,NaN,,,,,,NaN,NaN,NaN,NaN,NaN,NaN,NaN,NaN,NaN,NaN,,,NaN,NaN,NaN,NaN,
2,1670940096888,13/12/2022 14:01:36,1670940096732,0,13/12/2022 14:01:36,109680,33,task-xjip,repeat-7g8d#1->-repeat-38fk#1,25915846,BLIND,7659497,NaN,complete,NaN,NaN,computer,Desktop or Laptop,Mac OS 10.15.7,Safari 14.1.2,1440x900,1440x820,End of Day 1,SLS,89,A,Pass,End of Day 1,Pass,NaN,NaN,NaN,Pass,NaN,Pass,NaN,schedule_A,schedule_A,1,1,1,Screen 1,Zone1,continue_button,3042,NaN,NaN,,NaN,0,1,0,NaN,NaN,NaN,NaN,NaN,getReady,,,,,1,NaN,NaN,NaN,NaN,NaN,NaN,NaN,NaN,NaN,,,NaN,NaN,NaN,NaN,
3,1670940098490,13/12/2022 14:01:38,1670940098337,0,13/12/2022 14:01:38,109680,33,task-xjip,repeat-7g8d#1->-repeat-38fk#1,25915846,BLIND,7659497,NaN,complete,NaN,NaN,computer,Desktop or Laptop,Mac OS 10.15.7,Safari 14.1.2,1440x900,1440x820,End of Day 1,SLS,89,A,Pass,End of Day 1,Pass,NaN,NaN,NaN,Pass,NaN,Pass,NaN,schedule_A,schedule_A,1,1,2,Screen 2,Zone1,continue_button,1599,NaN,NaN,,NaN,0,1,0,NaN,NaN,NaN,NaN,NaN,getReady,,,,,1,NaN,NaN,NaN,NaN,NaN,NaN,NaN,NaN,NaN,,,NaN,NaN,NaN,NaN,
4,1670940103452,13/12/2022 14:01:43,1670940103328,0,13/12/2022 14:01:43,109680,33,task-xjip,repeat-7g8d#1->-repeat-38fk#1,25915846,BLIND,7659497,NaN,complete,NaN,NaN,computer,Desktop or Laptop,Mac OS 10.15.7,Safari 14.1.2,1440x900,1440x820,End of Day 1,SLS,89,A,Pass,End of Day 1,Pass,NaN,NaN,NaN,Pass,NaN,Pass,NaN,schedule_A,schedule_A,2,1,1,Screen 1,Zone1,continue_button,4981,NaN,NaN,,NaN,0,1,0,NaN,NaN,NaN,NaN,NaN,trial_right,redBox.png,yellowBox.png,redBox.png,al1_con.png,2,1,NaN,NaN,0.85,0.85,1,1,1,0,Volatile,Stable,3.471,0.525,1.66,2.529,expert
5,1670940104468,13/12/2022 14:01:44,1670940104325,0,13/12/2022 14:01:44,109680,33,task-xjip,repeat-7g8d#1->-repeat-38fk#1,25915846,BLIND,7659497,NaN,complete,NaN,NaN,computer,Desktop or Laptop,Mac OS 10.15.7,Safari 14.1.2,1440x900,1440x820,End of Day 1,SLS,89,A,Pass,End of Day 1,Pass,NaN,NaN,NaN,Pass,NaN,Pass,NaN,schedule_A,schedule_A,2,1,2,individual,Zone4,timelimit_screen,1000,NaN,NaN,,NaN,0,1,0,NaN,NaN,1,NaN,NaN,trial_right,redBox.png,yellowBox.png,redBox.png,al1_con.png,2,1,NaN,NaN,0.85,0.85,1,1,1,0,Volatile,Stable,3.471,0.525,1.66,2.529,expert
6,1670940105996,13/12/2022 14:01:45,1670940105818,0,13/12/2022 14:01:45,109680,33,task-xjip,repeat-7g8d#1->-repeat-38fk#1,25915846,BLIND,7659497,NaN,complete,NaN,NaN,computer,Desktop or Laptop,Mac OS 10.15.7,Safari 14.1.2,1440x900,1440x820,End of Day 1,SLS,89,A,Pass,End of Day 1,Pass,NaN,NaN,NaN,Pass,NaN,Pass,NaN,schedule_A,schedule_A,2,1,3,offer,Zone3,response_button_image,1482,NaN,NaN,redBox.png,1,1,0,0,NaN,NaN,NaN,NaN,NaN,trial_right,redBox.png,yellowBox.png,redBox.png,al1_con.png,2,1,NaN,NaN,0.85,0.85,1,1,1,0,Volatile,Stable,3.471,0.525,1.66,2.529,expert
7,1670940107967,13/12/2022 14:01:47,1670940107808,0,13/12/2022 14:01:47,109680,33,task-xjip,repeat-7g8d#1->-repeat-38fk#1,25915846,BLIND,7659497,NaN,complete,NaN,NaN,computer,Desktop or Laptop,Mac OS 10.15.7,Safari 14.1.2,1440x900,1440x820,End of Day 1,SLS,89,A,Pass,End of Day 1,Pass,NaN,NaN,NaN,Pass,NaN,Pass,NaN,schedule_A,schedule_A,2,1,5,feedback_r,Zone7,timelimit_screen,2000,NaN,NaN,,NaN,0,1,0,NaN,NaN,1,NaN,NaN,trial_right,redBox.png,yellowBox.png,redBox.png,al1_con.png,2,1,NaN,NaN,0.85,0.85,1,1,1,0,Volatile,Stable,3.471,0.525,1.66,2.529,expert
8,1670940108078,13/12/2022 14:01:48,1670940107958,0,13/12/2022 14:01:47,109680,33,task-xjip,repeat-7g8d#1->-repeat-38fk#1,25915846,BLIND,7659497,NaN,complete,NaN,NaN,computer,Desktop or Laptop,Mac OS 10.15.7,Safari 14.1.2,1440x900,1440x820,End of Day 1,SLS,89,A,Pass,End of Day 1,Pass,NaN,NaN,NaN,Pass,NaN,Pass,NaN,schedule_A,schedule_A,2,1,6,end,Zone1,timelimit_screen,150,NaN,NaN,,NaN,0,1,0,NaN,NaN,1,NaN,NaN,trial_right,redBox.png,yellowBox.png,redBox.png,al1_con.png,2,1,NaN,NaN,0.85,0.85,1,1,1,0,Volatile,Stable,3.471,0.525,1.66,2.529,expert
9,1670940110985,13/12/2022 14:01:50,1670940110853,0,13/12/2022 14:01:50,109680,33,task-xjip,repeat-7g8d#1->-repeat-38fk#1,25915846,BLIND,7659497,NaN,complete,NaN,NaN,computer,Desktop or Laptop,Mac OS 10.15.7,Safari 14.1.2,1440x900,1440x820,End of Day 1,SLS,89,A,Pass,End of Day 1,Pass,NaN,NaN,NaN,Pass,NaN,Pass,NaN,schedule_A,schedule_A,3,1,1,Screen 1,Zone1,continue_button,2881,NaN,NaN,,NaN,0,1,0,NaN,NaN,NaN,NaN,NaN,trial_left,redBox.png,redBox.png,yellowBox.png,al1_con.png,3,2,NaN,NaN,0.85,0.85,1,1,1,1,Volatile,Stable,1.782,1.168,1.168,2.462,expert
10,1670940111986,13/12/2022 14:01:51,1670940111841,0,13/12/2022 14:01:51,109680,33,task-xjip,repeat-7g8d#1->-repeat-38fk#1,25915846,BLIND,7659497,NaN,complete,NaN,NaN,computer,Desktop or Laptop,Mac OS 10.15.7,Safari 14.1.2,1440x900,1440x820,End of Day 1,SLS,89,A,Pass,End of Day 1,Pass,NaN,NaN,NaN,Pass,NaN,Pass,NaN,schedule_A,schedule_A,3,1,2,individual,Zone4,timelimit_screen,1000,NaN,NaN,,NaN,0,1,0,NaN,NaN,1,NaN,NaN,trial_left,redBox.png,redBox.png,yellowBox.png,al1_con.png,3,2,NaN,NaN,0.85,0.85,1,1,1,1,Volatile,Stable,1.782,1.168,1.168,2.462,expert
11,1670940113108,13/12/2022 14:01:53,1670940112974,0,13/12/2022 14:01:52,109680,33,task-xjip,repeat-7g8d#1->-repeat-38fk#1,25915846,BLIND,7659497,NaN,complete,NaN,NaN,computer,Desktop or Laptop,Mac OS 10.15.7,Safari 14.1.2,1440x900,1440x820,End of Day 1,SLS,89,A,Pass,End of Day 1,Pass,NaN,NaN,NaN,Pass,NaN,Pass,NaN,schedule_A,schedule_A,3,1,3,offer,Zone2,response_button_image,1123,NaN,NaN,redBox.png,1,1,0,0,NaN,NaN,NaN,NaN,NaN,trial_left,redBox.png,redBox.png,yellowBox.png,al1_con.png,3,2,NaN,NaN,0.85,0.85,1,1,1,1,Volatile,Stable,1.782,1.168,1.168,2.462,expert
12,1670940115110,13/12/2022 14:01:55,1670940114958,0,13/12/2022 14:01:54,109680,33,task-xjip,repeat-7g8d#1->-repeat-38fk#1,25915846,BLIND,7659497,NaN,complete,NaN,NaN,computer,Desktop or Laptop,Mac OS 10.15.7,Safari 14.1.2,1440x900,1440x820,End of Day 1,SLS,89,A,Pass,End of Day 1,Pass,NaN,NaN,NaN,Pass,NaN,Pass,NaN,schedule_A,schedule_A,3,1,4,feedback_l,Zone7,timelimit_screen,1999,NaN,NaN,,NaN,0,1,0,NaN,NaN,1,NaN,NaN,trial_left,redBox.png,redBox.png,yellowBox.png,al1_con.png,3,2,NaN,NaN,0.85,0.85,1,1,1,1,Volatile,Stable,1.782,1.168,1.168,2.462,expert
13,1670940115244,13/12/2022 14:01:55,1670940115108,0,13/12/2022 14:01:55,109680,33,task-xjip,repeat-7g8d#1->-repeat-38fk#1,25915846,BLIND,7659497,NaN,complete,NaN,NaN,computer,Desktop or Laptop,Mac OS 10.15.7,Safari 14.1.2,1440x900,1440x820,End of Day 1,SLS,89,A,Pass,End of Day 1,Pass,NaN,NaN,NaN,Pass,NaN,Pass,NaN,schedule_A,schedule_A,3,1,6,end,Zone1,timelimit_screen,151,NaN,NaN,,NaN,0,1,0,NaN,NaN,1,NaN,NaN,trial_left,redBox.png,redBox.png,yellowBox.png,al1_con.png,3,2,NaN,NaN,0.85,0.85,1,1,1,1,Volatile,Stable,1.782,1.168,1.168,2.462,expert
14,1670940116711,13/12/2022 14:01:56,1670940116570,0,13/12/2022 14:01:56,109680,33,task-xjip,repeat-7g8d#1->-repeat-38fk#1,25915846,BLIND,7659497,NaN,complete,NaN,NaN,computer,Desktop or Laptop,Mac OS 10.15.7,Safari 14.1.2,1440x900,1440x820,End of Day 1,SLS,89,A,Pass,End of Day 1,Pass,NaN,NaN,NaN,Pass,NaN,Pass,NaN,schedule_A,schedule_A,4,2,1,Screen 1,Zone1,continue_button,1447,NaN,NaN,,NaN,0,1,0,NaN,NaN,NaN,NaN,NaN,trial_right,redBox.png,yellowBox.png,redBox.png,al1_con.png,4,3,NaN,NaN,0.85,0.85,1,1,1,0,Volatile,Stable,1.983,1.181,0.538,1.588,expert
15,1670940117763,13/12/2022 14:01:57,1670940117557,0,13/12/2022 14:01:57,109680,33,task-xjip,repeat-7g8d#1->-repeat-38fk#1,25915846,BLIND,7659497,NaN,complete,NaN,NaN,computer,Desktop or Laptop,Mac OS 10.15.7,Safari 14.1.2,1440x900,1440x820,End of Day 1,SLS,89,A,Pass,End of Day 1,Pass,NaN,NaN,NaN,Pass,NaN,Pass,NaN,schedule_A,schedule_A,4,2,2,individual,Zone4,timelimit_screen,999,NaN,NaN,,NaN,0,1,0,NaN,NaN,1,NaN,NaN,trial_right,redBox.png,yellowBox.png,redBox.png,al1_con.png,4,3,NaN,NaN,0.85,0.85,1,1,1,0,Volatile,Stable,1.983,1.181,0.538,1.588,expert
16,1670940118601,13/12/2022 14:01:58,1670940118426,0,13/12/2022 14:01:58,109680,33,task-xjip,repeat-7g8d#1->-repeat-38fk#1,25915846,BLIND,7659497,NaN,complete,NaN,NaN,computer,Desktop or Laptop,Mac OS 10.15.7,Safari 14.1.2,1440x900,1440x820,End of Day 1,SLS,89,A,Pass,End of Day 1,Pass,NaN,NaN,NaN,Pass,NaN,Pass,NaN,schedule_A,schedule_A,4,2,3,offer,Zone3,response_button_image,861.999999999996,NaN,NaN,redBox.png,1,1,0,0,NaN,NaN,NaN,NaN,NaN,trial_right,redBox.png,yellowBox.png,redBox.png,al1_con.png,4,3,NaN,NaN,0.85,0.85,1,1,1,0,Volatile,Stable,1.983,1.181,0.538,1.588,expert
17,1670940120528,13/12/2022 14:02:00,1670940120408,0,13/12/2022 14:02:00,109680,33,task-xjip,repeat-7g8d#1->-repeat-38fk#1,25915846,BLIND,7659497,NaN,complete,NaN,NaN,computer,Desktop or Laptop,Mac OS 10.15.7,Safari 14.1.2,1440x900,1440x820,End of Day 1,SLS,89,A,Pass,End of Day 1,Pass,NaN,NaN,NaN,Pass,NaN,Pass,NaN,schedule_A,schedule_A,4,2,5,feedback_r,Zone7,timelimit_screen,2000,NaN,NaN,,NaN,0,1,0,NaN,NaN,1,NaN,NaN,trial_right,redBox.png,yellowBox.png,redBox.png,al1_con.png,4,3,NaN,NaN,0.85,0.85,1,1,1,0,Volatile,Stable,1.983,1.181,0.538,1.588,expert
18,1670940120697,13/12/2022 14:02:00,1670940120557,0,13/12/2022 14:02:00,109680,33,task-xjip,repeat-7g8d#1->-repeat-38fk#1,25915846,BLIND,7659497,NaN,complete,NaN,NaN,computer,Desktop or Laptop,Mac OS 10.15.7,Safari 14.1.2,1440x900,1440x820,End of Day 1,SLS,89,A,Pass,End of Day 1,Pass,NaN,NaN,NaN,Pass,NaN,Pass,NaN,schedule_A,schedule_A,4,2,6,end,Zone1,timelimit_screen,149,NaN,NaN,,NaN,0,1,0,NaN,NaN,1,NaN,NaN,trial_right,redBox.png,yellowBox.png,redBox.png,al1_con.png,4,3,NaN,NaN,0.85,0.85,1,1,1,0,Volatile,Stable,1.983,1.181,0.538,1.588,expert
19,1670940121541,13/12/2022 14:02:01,1670940121437,0,13/12/2022 14:02:01,109680,33,task-xjip,repeat-7g8d#1->-repeat-38fk#1,25915846,BLIND,7659497,NaN,complete,NaN,NaN,computer,Desktop or Laptop,Mac OS 10.15.7,Safari 14.1.2,1440x900,1440x820,End of Day 1,SLS,89,A,Pass,End of Day 1,Pass,NaN,NaN,NaN,Pass,NaN,Pass,NaN,schedule_A,schedule_A,5,3,1,Screen 1,Zone1,continue_button,866,NaN,NaN,,NaN,0,1,0,NaN,NaN,NaN,NaN,NaN,trial_right,redBox.png,yellowBox.png,redBox.png,al1_con.png,5,4,NaN,NaN,0.85,0.85,1,1,1,0,Volatile,Stable,1.529,0.891,1.004,1,expert
20,1670940122529,13/12/2022 14:02:02,1670940122425,0,13/12/2022 14:02:02,109680,33,task-xjip,repeat-7g8d#1->-repeat-38fk#1,25915846,BLIND,7659497,NaN,complete,NaN,NaN,computer,Desktop or Laptop,Mac OS 10.15.7,Safari 14.1.2,1440x900,1440x820,End of Day 1,SLS,89,A,Pass,End of Day 1,Pass,NaN,NaN,NaN,Pass,NaN,Pass,NaN,schedule_A,schedule_A,5,3,2,individual,Zone4,timelimit_screen,1000,NaN,NaN,,NaN,0,1,0,NaN,NaN,1,NaN,NaN,trial_right,redBox.png,yellowBox.png,redBox.png,al1_con.png,5,4,NaN,NaN,0.85,0.85,1,1,1,0,Volatile,Stable,1.529,0.891,1.004,1,expert
21,1670940123779,13/12/2022 14:02:03,1670940123675,0,13/12/2022 14:02:03,109680,33,task-xjip,repeat-7g8d#1->-repeat-38fk#1,25915846,BLIND,7659497,NaN,complete,NaN,NaN,computer,Desktop or Laptop,Mac OS 10.15.7,Safari 14.1.2,1440x900,1440x820,End of Day 1,SLS,89,A,Pass,End of Day 1,Pass,NaN,NaN,NaN,Pass,NaN,Pass,NaN,schedule_A,schedule_A,5,3,3,offer,Zone3,response_button_image,1246,NaN,NaN,redBox.png,1,1,0,0,NaN,NaN,NaN,NaN,NaN,trial_right,redBox.png,yellowBox.png,redBox.png,al1_con.png,5,4,NaN,NaN,0.85,0.85,1,1,1,0,Volatile,Stable,1.529,0.891,1.004,1,expert
22,1670940125792,13/12/2022 14:02:05,1670940125675,0,13/12/2022 14:02:05,109680,33,task-xjip,repeat-7g8d#1->-repeat-38fk#1,25915846,BLIND,7659497,NaN,complete,NaN,NaN,computer,Desktop or Laptop,Mac OS 10.15.7,Safari 14.1.2,1440x900,1440x820,End of Day 1,SLS,89,A,Pass,End of Day 1,Pass,NaN,NaN,NaN,Pass,NaN,Pass,NaN,schedule_A,schedule_A,5,3,5,feedback_r,Zone7,timelimit_screen,2000,NaN,NaN,,NaN,0,1,0,NaN,NaN,1,NaN,NaN,trial_right,redBox.png,yellowBox.png,redBox.png,al1_con.png,5,4,NaN,NaN,0.85,0.85,1,1,1,0,Volatile,Stable,1.529,0.891,1.004,1,expert
23,1670940125966,13/12/2022 14:02:05,1670940125825,0,13/12/2022 14:02:05,109680,33,task-xjip,repeat-7g8d#1->-repeat-38fk#1,25915846,BLIND,7659497,NaN,complete,NaN,NaN,computer,Desktop or Laptop,Mac OS 10.15.7,Safari 14.1.2,1440x900,1440x820,End of Day 1,SLS,89,A,Pass,End of Day 1,Pass,NaN,NaN,NaN,Pass,NaN,Pass,NaN,schedule_A,schedule_A,5,3,6,end,Zone1,timelimit_screen,151,NaN,NaN,,NaN,0,1,0,NaN,NaN,1,NaN,NaN,trial_right,redBox.png,yellowBox.png,redBox.png,al1_con.png,5,4,NaN,NaN,0.85,0.85,1,1,1,0,Volatile,Stable,1.529,0.891,1.004,1,expert
24,1670940126867,13/12/2022 14:02:06,1670940126760,0,13/12/2022 14:02:06,109680,33,task-xjip,repeat-7g8d#1->-repeat-38fk#1,25915846,BLIND,7659497,NaN,complete,NaN,NaN,computer,Desktop or Laptop,Mac OS 10.15.7,Safari 14.1.2,1440x900,1440x820,End of Day 1,SLS,89,A,Pass,End of Day 1,Pass,NaN,NaN,NaN,Pass,NaN,Pass,NaN,schedule_A,schedule_A,6,2,1,Screen 1,Zone1,continue_button,923,NaN,NaN,,NaN,0,1,0,NaN,NaN,NaN,NaN,NaN,trial_left,redBox.png,redBox.png,yellowBox.png,al1_con.png,6,5,NaN,NaN,0.85,0.85,1,1,1,1,Volatile,Stable,1.832,1.118,0.752,1.79,expert
25,1670940127878,13/12/2022 14:02:07,1670940127758,0,13/12/2022 14:02:07,109680,33,task-xjip,repeat-7g8d#1->-repeat-38fk#1,25915846,BLIND,7659497,NaN,complete,NaN,NaN,computer,Desktop or Laptop,Mac OS 10.15.7,Safari 14.1.2,1440x900,1440x820,End of Day 1,SLS,89,A,Pass,End of Day 1,Pass,NaN,NaN,NaN,Pass,NaN,Pass,NaN,schedule_A,schedule_A,6,2,2,individual,Zone4,timelimit_screen,1000,NaN,NaN,,NaN,0,1,0,NaN,NaN,1,NaN,NaN,trial_left,redBox.png,redBox.png,yellowBox.png,al1_con.png,6,5,NaN,NaN,0.85,0.85,1,1,1,1,Volatile,Stable,1.832,1.118,0.752,1.79,expert
26,1670940128937,13/12/2022 14:02:08,1670940128833,0,13/12/2022 14:02:08,109680,33,task-xjip,repeat-7g8d#1->-repeat-38fk#1,25915846,BLIND,7659497,NaN,complete,NaN,NaN,computer,Desktop or Laptop,Mac OS 10.15.7,Safari 14.1.2,1440x900,1440x820,End of Day 1,SLS,89,A,Pass,End of Day 1,Pass,NaN,NaN,NaN,Pass,NaN,Pass,NaN,schedule_A,schedule_A,6,2,3,offer,Zone2,response_button_image,1064,NaN,NaN,redBox.png,1,1,0,0,NaN,NaN,NaN,NaN,NaN,trial_left,redBox.png,redBox.png,yellowBox.png,al1_con.png,6,5,NaN,NaN,0.85,0.85,1,1,1,1,Volatile,Stable,1.832,1.118,0.752,1.79,expert
27,1670940131019,13/12/2022 14:02:11,1670940130825,0,13/12/2022 14:02:10,109680,33,task-xjip,repeat-7g8d#1->-repeat-38fk#1,25915846,BLIND,7659497,NaN,complete,NaN,NaN,computer,Desktop or Laptop,Mac OS 10.15.7,Safari 14.1.2,1440x900,1440x820,End of Day 1,SLS,89,A,Pass,End of Day 1,Pass,NaN,NaN,NaN,Pass,NaN,Pass,NaN,schedule_A,schedule_A,6,2,4,feedback_l,Zone7,timelimit_screen,2000,NaN,NaN,,NaN,0,1,0,NaN,NaN,1,NaN,NaN,trial_left,redBox.png,redBox.png,yellowBox.png,al1_con.png,6,5,NaN,NaN,0.85,0.85,1,1,1,1,Volatile,Stable,1.832,1.118,0.752,1.79,expert
28,1670940131097,13/12/2022 14:02:11,1670940130975,0,13/12/2022 14:02:10,109680,33,task-xjip,repeat-7g8d#1->-repeat-38fk#1,25915846,BLIND,7659497,NaN,complete,NaN,NaN,computer,Desktop or Laptop,Mac OS 10.15.7,Safari 14.1.2,1440x900,1440x820,End of Day 1,SLS,89,A,Pass,End of Day 1,Pass,NaN,NaN,NaN,Pass,NaN,Pass,NaN,schedule_A,schedule_A,6,2,6,end,Zone1,timelimit_screen,150,NaN,NaN,,NaN,0,1,0,NaN,NaN,1,NaN,NaN,trial_left,redBox.png,redBox.png,yellowBox.png,al1_con.png,6,5,NaN,NaN,0.85,0.85,1,1,1,1,Volatile,Stable,1.832,1.118,0.752,1.79,expert
29,1670940132219,13/12/2022 14:02:12,1670940132100,0,13/12/2022 14:02:12,109680,33,task-xjip,repeat-7g8d#1->-repeat-38fk#1,25915846,BLIND,7659497,NaN,complete,NaN,NaN,computer,Desktop or Laptop,Mac OS 10.15.7,Safari 14.1.2,1440x900,1440x820,End of Day 1,SLS,89,A,Pass,End of Day 1,Pass,NaN,NaN,NaN,Pass,NaN,Pass,NaN,schedule_A,schedule_A,7,4,1,Screen 1,Zone1,continue_button,1111,NaN,NaN,,NaN,0,1,0,NaN,NaN,NaN,NaN,NaN,trial_right,yellowBox.png,redBox.png,yellowBox.png,al1_con.png,7,6,NaN,NaN,0.15,0.85,0,1,0,1,Volatile,Stable,3.294,0.815,1.282,2.664,expert
30,1670940133202,13/12/2022 14:02:13,1670940133092,0,13/12/2022 14:02:13,109680,33,task-xjip,repeat-7g8d#1->-repeat-38fk#1,25915846,BLIND,7659497,NaN,complete,NaN,NaN,computer,Desktop or Laptop,Mac OS 10.15.7,Safari 14.1.2,1440x900,1440x820,End of Day 1,SLS,89,A,Pass,End of Day 1,Pass,NaN,NaN,NaN,Pass,NaN,Pass,NaN,schedule_A,schedule_A,7,4,2,individual,Zone4,timelimit_screen,1000,NaN,NaN,,NaN,0,1,0,NaN,NaN,1,NaN,NaN,trial_right,yellowBox.png,redBox.png,yellowBox.png,al1_con.png,7,6,NaN,NaN,0.15,0.85,0,1,0,1,Volatile,Stable,3.294,0.815,1.282,2.664,expert
31,1670940134143,13/12/2022 14:02:14,1670940133996,0,13/12/2022 14:02:13,109680,33,task-xjip,repeat-7g8d#1->-repeat-38fk#1,25915846,BLIND,7659497,NaN,complete,NaN,NaN,computer,Desktop or Laptop,Mac OS 10.15.7,Safari 14.1.2,1440x900,1440x820,End of Day 1,SLS,89,A,Pass,End of Day 1,Pass,NaN,NaN,NaN,Pass,NaN,Pass,NaN,schedule_A,schedule_A,7,4,3,offer,Zone3,response_button_image,895,NaN,NaN,yellowBox.png,1,1,0,0,NaN,NaN,NaN,NaN,NaN,trial_right,yellowBox.png,redBox.png,yellowBox.png,al1_con.png,7,6,NaN,NaN,0.15,0.85,0,1,0,1,Volatile,Stable,3.294,0.815,1.282,2.664,expert
32,1670940136096,13/12/2022 14:02:16,1670940135992,0,13/12/2022 14:02:15,109680,33,task-xjip,repeat-7g8d#1->-repeat-38fk#1,25915846,BLIND,7659497,NaN,complete,NaN,NaN,computer,Desktop or Laptop,Mac OS 10.15.7,Safari 14.1.2,1440x900,1440x820,End of Day 1,SLS,89,A,Pass,End of Day 1,Pass,NaN,NaN,NaN,Pass,NaN,Pass,NaN,schedule_A,schedule_A,7,4,5,feedback_r,Zone7,timelimit_screen,2001,NaN,NaN,,NaN,0,1,0,NaN,NaN,1,NaN,NaN,trial_right,yellowBox.png,redBox.png,yellowBox.png,al1_con.png,7,6,NaN,NaN,0.15,0.85,0,1,0,1,Volatile,Stable,3.294,0.815,1.282,2.664,expert
33,1670940136351,13/12/2022 14:02:16,1670940136141,0,13/12/2022 14:02:16,109680,33,task-xjip,repeat-7g8d#1->-repeat-38fk#1,25915846,BLIND,7659497,NaN,complete,NaN,NaN,computer,Desktop or Laptop,Mac OS 10.15.7,Safari 14.1.2,1440x900,1440x820,End of Day 1,SLS,89,A,Pass,End of Day 1,Pass,NaN,NaN,NaN,Pass,NaN,Pass,NaN,schedule_A,schedule_A,7,4,6,end,Zone1,timelimit_screen,149,NaN,NaN,,NaN,0,1,0,NaN,NaN,1,NaN,NaN,trial_right,yellowBox.png,redBox.png,yellowBox.png,al1_con.png,7,6,NaN,NaN,0.15,0.85,0,1,0,1,Volatile,Stable,3.294,0.815,1.282,2.664,expert
34,1670940137199,13/12/2022 14:02:17,1670940137087,0,13/12/2022 14:02:17,109680,33,task-xjip,repeat-7g8d#1->-repeat-38fk#1,25915846,BLIND,7659497,NaN,complete,NaN,NaN,computer,Desktop or Laptop,Mac OS 10.15.7,Safari 14.1.2,1440x900,1440x820,End of Day 1,SLS,89,A,Pass,End of Day 1,Pass,NaN,NaN,NaN,Pass,NaN,Pass,NaN,schedule_A,schedule_A,8,3,1,Screen 1,Zone1,continue_button,933.999999999993,NaN,NaN,,NaN,0,1,0,NaN,NaN,NaN,NaN,NaN,trial_left,yellowBox.png,yellowBox.png,redBox.png,al1_con.png,8,7,NaN,NaN,0.15,0.85,0,1,0,0,Volatile,Stable,3.269,1.37,1.786,2.328,expert
35,1670940138173,13/12/2022 14:02:18,1670940138075,0,13/12/2022 14:02:18,109680,33,task-xjip,repeat-7g8d#1->-repeat-38fk#1,25915846,BLIND,7659497,NaN,complete,NaN,NaN,computer,Desktop or Laptop,Mac OS 10.15.7,Safari 14.1.2,1440x900,1440x820,End of Day 1,SLS,89,A,Pass,End of Day 1,Pass,NaN,NaN,NaN,Pass,NaN,Pass,NaN,schedule_A,schedule_A,8,3,2,individual,Zone4,timelimit_screen,1000,NaN,NaN,,NaN,0,1,0,NaN,NaN,1,NaN,NaN,trial_left,yellowBox.png,yellowBox.png,redBox.png,al1_con.png,8,7,NaN,NaN,0.15,0.85,0,1,0,0,Volatile,Stable,3.269,1.37,1.786,2.328,expert
36,1670940139129,13/12/2022 14:02:19,1670940139015,0,13/12/2022 14:02:19,109680,33,task-xjip,repeat-7g8d#1->-repeat-38fk#1,25915846,BLIND,7659497,NaN,complete,NaN,NaN,computer,Desktop or Laptop,Mac OS 10.15.7,Safari 14.1.2,1440x900,1440x820,End of Day 1,SLS,89,A,Pass,End of Day 1,Pass,NaN,NaN,NaN,Pass,NaN,Pass,NaN,schedule_A,schedule_A,8,3,3,offer,Zone2,response_button_image,932.000000000007,NaN,NaN,yellowBox.png,1,1,0,0,NaN,NaN,NaN,NaN,NaN,trial_left,yellowBox.png,yellowBox.png,redBox.png,al1_con.png,8,7,NaN,NaN,0.15,0.85,0,1,0,0,Volatile,Stable,3.269,1.37,1.786,2.328,expert
37,1670940141126,13/12/2022 14:02:21,1670940141008,0,13/12/2022 14:02:21,109680,33,task-xjip,repeat-7g8d#1->-repeat-38fk#1,25915846,BLIND,7659497,NaN,complete,NaN,NaN,computer,Desktop or Laptop,Mac OS 10.15.7,Safari 14.1.2,1440x900,1440x820,End of Day 1,SLS,89,A,Pass,End of Day 1,Pass,NaN,NaN,NaN,Pass,NaN,Pass,NaN,schedule_A,schedule_A,8,3,4,feedback_l,Zone7,timelimit_screen,2000,NaN,NaN,,NaN,0,1,0,NaN,NaN,1,NaN,NaN,trial_left,yellowBox.png,yellowBox.png,redBox.png,al1_con.png,8,7,NaN,NaN,0.15,0.85,0,1,0,0,Volatile,Stable,3.269,1.37,1.786,2.328,expert
38,1670940141300,13/12/2022 14:02:21,1670940141157,0,13/12/2022 14:02:21,109680,33,task-xjip,repeat-7g8d#1->-repeat-38fk#1,25915846,BLIND,7659497,NaN,complete,NaN,NaN,computer,Desktop or Laptop,Mac OS 10.15.7,Safari 14.1.2,1440x900,1440x820,End of Day 1,SLS,89,A,Pass,End of Day 1,Pass,NaN,NaN,NaN,Pass,NaN,Pass,NaN,schedule_A,schedule_A,8,3,6,end,Zone1,timelimit_screen,149,NaN,NaN,,NaN,0,1,0,NaN,NaN,1,NaN,NaN,trial_left,yellowBox.png,yellowBox.png,redBox.png,al1_con.png,8,7,NaN,NaN,0.15,0.85,0,1,0,0,Volatile,Stable,3.269,1.37,1.786,2.328,expert
39,1670940142224,13/12/2022 14:02:22,1670940142114,0,13/12/2022 14:02:22,109680,33,task-xjip,repeat-7g8d#1->-repeat-38fk#1,25915846,BLIND,7659497,NaN,complete,NaN,NaN,computer,Desktop or Laptop,Mac OS 10.15.7,Safari 14.1.2,1440x900,1440x820,End of Day 1,SLS,89,A,Pass,End of Day 1,Pass,NaN,NaN,NaN,Pass,NaN,Pass,NaN,schedule_A,schedule_A,9,4,1,Screen 1,Zone1,continue_button,945,NaN,NaN,,NaN,0,1,0,NaN,NaN,NaN,NaN,NaN,trial_left,yellowBox.png,redBox.png,yellowBox.png,al1_con.png,9,8,NaN,NaN,0.15,0.85,0,0,1,1,Volatile,Stable,3.975,0.576,1.256,1.807,expert
40,1670940143257,13/12/2022 14:02:23,1670940143108,0,13/12/2022 14:02:23,109680,33,task-xjip,repeat-7g8d#1->-repeat-38fk#1,25915846,BLIND,7659497,NaN,complete,NaN,NaN,computer,Desktop or Laptop,Mac OS 10.15.7,Safari 14.1.2,1440x900,1440x820,End of Day 1,SLS,89,A,Pass,End of Day 1,Pass,NaN,NaN,NaN,Pass,NaN,Pass,NaN,schedule_A,schedule_A,9,4,2,individual,Zone4,timelimit_screen,1000,NaN,NaN,,NaN,0,1,0,NaN,NaN,1,NaN,NaN,trial_left,yellowBox.png,redBox.png,yellowBox.png,al1_con.png,9,8,NaN,NaN,0.15,0.85,0,0,1,1,Volatile,Stable,3.975,0.576,1.256,1.807,expert
41,1670940144162,13/12/2022 14:02:24,1670940143978,0,13/12/2022 14:02:23,109680,33,task-xjip,repeat-7g8d#1->-repeat-38fk#1,25915846,BLIND,7659497,NaN,complete,NaN,NaN,computer,Desktop or Laptop,Mac OS 10.15.7,Safari 14.1.2,1440x900,1440x820,End of Day 1,SLS,89,A,Pass,End of Day 1,Pass,NaN,NaN,NaN,Pass,NaN,Pass,NaN,schedule_A,schedule_A,9,4,3,offer,Zone2,response_button_image,865,NaN,NaN,redBox.png,1,0,1,0,NaN,NaN,NaN,NaN,NaN,trial_left,yellowBox.png,redBox.png,yellowBox.png,al1_con.png,9,8,NaN,NaN,0.15,0.85,0,0,1,1,Volatile,Stable,3.975,0.576,1.256,1.807,expert
42,1670940146088,13/12/2022 14:02:26,1670940145975,0,13/12/2022 14:02:25,109680,33,task-xjip,repeat-7g8d#1->-repeat-38fk#1,25915846,BLIND,7659497,NaN,complete,NaN,NaN,computer,Desktop or Laptop,Mac OS 10.15.7,Safari 14.1.2,1440x900,1440x820,End of Day 1,SLS,89,A,Pass,End of Day 1,Pass,NaN,NaN,NaN,Pass,NaN,Pass,NaN,schedule_A,schedule_A,9,4,4,feedback_l,Zone7,timelimit_screen,2001,NaN,NaN,,NaN,0,1,0,NaN,NaN,1,NaN,NaN,trial_left,yellowBox.png,redBox.png,yellowBox.png,al1_con.png,9,8,NaN,NaN,0.15,0.85,0,0,1,1,Volatile,Stable,3.975,0.576,1.256,1.807,expert
43,1670940146282,13/12/2022 14:02:26,1670940146125,0,13/12/2022 14:02:26,109680,33,task-xjip,repeat-7g8d#1->-repeat-38fk#1,25915846,BLIND,7659497,NaN,complete,NaN,NaN,computer,Desktop or Laptop,Mac OS 10.15.7,Safari 14.1.2,1440x900,1440x820,End of Day 1,SLS,89,A,Pass,End of Day 1,Pass,NaN,NaN,NaN,Pass,NaN,Pass,NaN,schedule_A,schedule_A,9,4,6,end,Zone1,timelimit_screen,150,NaN,NaN,,NaN,0,1,0,NaN,NaN,1,NaN,NaN,trial_left,yellowBox.png,redBox.png,yellowBox.png,al1_con.png,9,8,NaN,NaN,0.15,0.85,0,0,1,1,Volatile,Stable,3.975,0.576,1.256,1.807,expert
44,1670940147113,13/12/2022 14:02:27,1670940146989,0,13/12/2022 14:02:26,109680,33,task-xjip,repeat-7g8d#1->-repeat-38fk#1,25915846,BLIND,7659497,NaN,complete,NaN,NaN,computer,Desktop or Laptop,Mac OS 10.15.7,Safari 14.1.2,1440x900,1440x820,End of Day 1,SLS,89,A,Pass,End of Day 1,Pass,NaN,NaN,NaN,Pass,NaN,Pass,NaN,schedule_A,schedule_A,10,5,1,Screen 1,Zone1,continue_button,849,NaN,NaN,,NaN,0,1,0,NaN,NaN,NaN,NaN,NaN,trial_right,redBox.png,redBox.png,yellowBox.png,al1_con.png,10,9,NaN,NaN,0.15,0.85,1,0,0,1,Volatile,Stable,3.798,1.055,1.559,2.042,expert
45,1670940148218,13/12/2022 14:02:28,1670940147975,0,13/12/2022 14:02:27,109680,33,task-xjip,repeat-7g8d#1->-repeat-38fk#1,25915846,BLIND,7659497,NaN,complete,NaN,NaN,computer,Desktop or Laptop,Mac OS 10.15.7,Safari 14.1.2,1440x900,1440x820,End of Day 1,SLS,89,A,Pass,End of Day 1,Pass,NaN,NaN,NaN,Pass,NaN,Pass,NaN,schedule_A,schedule_A,10,5,2,individual,Zone4,timelimit_screen,1000,NaN,NaN,,NaN,0,1,0,NaN,NaN,1,NaN,NaN,trial_right,redBox.png,redBox.png,yellowBox.png,al1_con.png,10,9,NaN,NaN,0.15,0.85,1,0,0,1,Volatile,Stable,3.798,1.055,1.559,2.042,expert
46,1670940149201,13/12/2022 14:02:29,1670940149093,0,13/12/2022 14:02:29,109680,33,task-xjip,repeat-7g8d#1->-repeat-38fk#1,25915846,BLIND,7659497,NaN,complete,NaN,NaN,computer,Desktop or Laptop,Mac OS 10.15.7,Safari 14.1.2,1440x900,1440x820,End of Day 1,SLS,89,A,Pass,End of Day 1,Pass,NaN,NaN,NaN,Pass,NaN,Pass,NaN,schedule_A,schedule_A,10,5,3,offer,Zone3,response_button_image,1107,NaN,NaN,yellowBox.png,1,0,1,0,NaN,NaN,NaN,NaN,NaN,trial_right,redBox.png,redBox.png,yellowBox.png,al1_con.png,10,9,NaN,NaN,0.15,0.85,1,0,0,1,Volatile,Stable,3.798,1.055,1.559,2.042,expert
47,1670940151196,13/12/2022 14:02:31,1670940151091,0,13/12/2022 14:02:31,109680,33,task-xjip,repeat-7g8d#1->-repeat-38fk#1,25915846,BLIND,7659497,NaN,complete,NaN,NaN,computer,Desktop or Laptop,Mac OS 10.15.7,Safari 14.1.2,1440x900,1440x820,End of Day 1,SLS,89,A,Pass,End of Day 1,Pass,NaN,NaN,NaN,Pass,NaN,Pass,NaN,schedule_A,schedule_A,10,5,5,feedback_r,Zone7,timelimit_screen,2000,NaN,NaN,,NaN,0,1,0,NaN,NaN,1,NaN,NaN,trial_right,redBox.png,redBox.png,yellowBox.png,al1_con.png,10,9,NaN,NaN,0.15,0.85,1,0,0,1,Volatile,Stable,3.798,1.055,1.559,2.042,expert
48,1670940151349,13/12/2022 14:02:31,1670940151241,0,13/12/2022 14:02:31,109680,33,task-xjip,repeat-7g8d#1->-repeat-38fk#1,25915846,BLIND,7659497,NaN,complete,NaN,NaN,computer,Desktop or Laptop,Mac OS 10.15.7,Safari 14.1.2,1440x900,1440x820,End of Day 1,SLS,89,A,Pass,End of Day 1,Pass,NaN,NaN,NaN,Pass,NaN,Pass,NaN,schedule_A,schedule_A,10,5,6,end,Zone1,timelimit_screen,150,NaN,NaN,,NaN,0,1,0,NaN,NaN,1,NaN,NaN,trial_right,redBox.png,redBox.png,yellowBox.png,al1_con.png,10,9,NaN,NaN,0.15,0.85,1,0,0,1,Volatile,Stable,3.798,1.055,1.559,2.042,expert
49,1670940152176,13/12/2022 14:02:32,1670940152065,0,13/12/2022 14:02:32,109680,33,task-xjip,repeat-7g8d#1->-repeat-38fk#1,25915846,BLIND,7659497,NaN,complete,NaN,NaN,computer,Desktop or Laptop,Mac OS 10.15.7,Safari 14.1.2,1440x900,1440x820,End of Day 1,SLS,89,A,Pass,End of Day 1,Pass,NaN,NaN,NaN,Pass,NaN,Pass,NaN,schedule_A,schedule_A,11,6,1,Screen 1,Zone1,continue_button,810,NaN,NaN,,NaN,0,1,0,NaN,NaN,NaN,NaN,NaN,trial_right,yellowBox.png,redBox.png,yellowBox.png,al1_con.png,21,10,NaN,NaN,0.15,0.85,0,1,0,1,Volatile,Stable,1.857,0.5,1.294,2.916,expert
50,1670940153168,13/12/2022 14:02:33,1670940153058,0,13/12/2022 14:02:33,109680,33,task-xjip,repeat-7g8d#1->-repeat-38fk#1,25915846,BLIND,7659497,NaN,complete,NaN,NaN,computer,Desktop or Laptop,Mac OS 10.15.7,Safari 14.1.2,1440x900,1440x820,End of Day 1,SLS,89,A,Pass,End of Day 1,Pass,NaN,NaN,NaN,Pass,NaN,Pass,NaN,schedule_A,schedule_A,11,6,2,individual,Zone4,timelimit_screen,1000,NaN,NaN,,NaN,0,1,0,NaN,NaN,1,NaN,NaN,trial_right,yellowBox.png,redBox.png,yellowBox.png,al1_con.png,21,10,NaN,NaN,0.15,0.85,0,1,0,1,Volatile,Stable,1.857,0.5,1.294,2.916,expert
51,1670940153951,13/12/2022 14:02:33,1670940153849,0,13/12/2022 14:02:33,109680,33,task-xjip,repeat-7g8d#1->-repeat-38fk#1,25915846,BLIND,7659497,NaN,complete,NaN,NaN,computer,Desktop or Laptop,Mac OS 10.15.7,Safari 14.1.2,1440x900,1440x820,End of Day 1,SLS,89,A,Pass,End of Day 1,Pass,NaN,NaN,NaN,Pass,NaN,Pass,NaN,schedule_A,schedule_A,11,6,3,offer,Zone2,response_button_image,783,NaN,NaN,redBox.png,1,0,1,0,NaN,NaN,NaN,NaN,NaN,trial_right,yellowBox.png,redBox.png,yellowBox.png,al1_con.png,21,10,NaN,NaN,0.15,0.85,0,1,0,1,Volatile,Stable,1.857,0.5,1.294,2.916,expert
52,1670940155948,13/12/2022 14:02:35,1670940155841,0,13/12/2022 14:02:35,109680,33,task-xjip,repeat-7g8d#1->-repeat-38fk#1,25915846,BLIND,7659497,NaN,complete,NaN,NaN,computer,Desktop or Laptop,Mac OS 10.15.7,Safari 14.1.2,1440x900,1440x820,End of Day 1,SLS,89,A,Pass,End of Day 1,Pass,NaN,NaN,NaN,Pass,NaN,Pass,NaN,schedule_A,schedule_A,11,6,4,feedback_l,Zone7,timelimit_screen,2000,NaN,NaN,,NaN,0,1,0,NaN,NaN,1,NaN,NaN,trial_right,yellowBox.png,redBox.png,yellowBox.png,al1_con.png,21,10,NaN,NaN,0.15,0.85,0,1,0,1,Volatile,Stable,1.857,0.5,1.294,2.916,expert
53,1670940156090,13/12/2022 14:02:36,1670940155991,0,13/12/2022 14:02:35,109680,33,task-xjip,repeat-7g8d#1->-repeat-38fk#1,25915846,BLIND,7659497,NaN,complete,NaN,NaN,computer,Desktop or Laptop,Mac OS 10.15.7,Safari 14.1.2,1440x900,1440x820,End of Day 1,SLS,89,A,Pass,End of Day 1,Pass,NaN,NaN,NaN,Pass,NaN,Pass,NaN,schedule_A,schedule_A,11,6,6,end,Zone1,timelimit_screen,149,NaN,NaN,,NaN,0,1,0,NaN,NaN,1,NaN,NaN,trial_right,yellowBox.png,redBox.png,yellowBox.png,al1_con.png,21,10,NaN,NaN,0.15,0.85,0,1,0,1,Volatile,Stable,1.857,0.5,1.294,2.916,expert
54,1670940157221,13/12/2022 14:02:37,1670940157116,0,13/12/2022 14:02:37,109680,33,task-xjip,repeat-7g8d#1->-repeat-38fk#1,25915846,BLIND,7659497,NaN,complete,NaN,NaN,computer,Desktop or Laptop,Mac OS 10.15.7,Safari 14.1.2,1440x900,1440x820,End of Day 1,SLS,89,A,Pass,End of Day 1,Pass,NaN,NaN,NaN,Pass,NaN,Pass,NaN,schedule_A,schedule_A,12,5,1,Screen 1,Zone1,continue_button,1110.99999999999,NaN,NaN,,NaN,0,1,0,NaN,NaN,NaN,NaN,NaN,trial_left,redBox.png,redBox.png,yellowBox.png,al1_con.png,22,11,NaN,NaN,0.85,0.85,1,1,1,1,Volatile,Stable,1.126,1.849,1.483,1.689,expert
55,1670940158221,13/12/2022 14:02:38,1670940158108,0,13/12/2022 14:02:38,109680,33,task-xjip,repeat-7g8d#1->-repeat-38fk#1,25915846,BLIND,7659497,NaN,complete,NaN,NaN,computer,Desktop or Laptop,Mac OS 10.15.7,Safari 14.1.2,1440x900,1440x820,End of Day 1,SLS,89,A,Pass,End of Day 1,Pass,NaN,NaN,NaN,Pass,NaN,Pass,NaN,schedule_A,schedule_A,12,5,2,individual,Zone4,timelimit_screen,1000,NaN,NaN,,NaN,0,1,0,NaN,NaN,1,NaN,NaN,trial_left,redBox.png,redBox.png,yellowBox.png,al1_con.png,22,11,NaN,NaN,0.85,0.85,1,1,1,1,Volatile,Stable,1.126,1.849,1.483,1.689,expert
56,1670940159078,13/12/2022 14:02:39,1670940158972,0,13/12/2022 14:02:38,109680,33,task-xjip,repeat-7g8d#1->-repeat-38fk#1,25915846,BLIND,7659497,NaN,complete,NaN,NaN,computer,Desktop or Laptop,Mac OS 10.15.7,Safari 14.1.2,1440x900,1440x820,End of Day 1,SLS,89,A,Pass,End of Day 1,Pass,NaN,NaN,NaN,Pass,NaN,Pass,NaN,schedule_A,schedule_A,12,5,3,offer,Zone2,response_button_image,858,NaN,NaN,redBox.png,1,1,0,0,NaN,NaN,NaN,NaN,NaN,trial_left,redBox.png,redBox.png,yellowBox.png,al1_con.png,22,11,NaN,NaN,0.85,0.85,1,1,1,1,Volatile,Stable,1.126,1.849,1.483,1.689,expert
57,1670940161061,13/12/2022 14:02:41,1670940160958,0,13/12/2022 14:02:40,109680,33,task-xjip,repeat-7g8d#1->-repeat-38fk#1,25915846,BLIND,7659497,NaN,complete,NaN,NaN,computer,Desktop or Laptop,Mac OS 10.15.7,Safari 14.1.2,1440x900,1440x820,End of Day 1,SLS,89,A,Pass,End of Day 1,Pass,NaN,NaN,NaN,Pass,NaN,Pass,NaN,schedule_A,schedule_A,12,5,4,feedback_l,Zone7,timelimit_screen,2000,NaN,NaN,,NaN,0,1,0,NaN,NaN,1,NaN,NaN,trial_left,redBox.png,redBox.png,yellowBox.png,al1_con.png,22,11,NaN,NaN,0.85,0.85,1,1,1,1,Volatile,Stable,1.126,1.849,1.483,1.689,expert
58,1670940161221,13/12/2022 14:02:41,1670940161107,0,13/12/2022 14:02:41,109680,33,task-xjip,repeat-7g8d#1->-repeat-38fk#1,25915846,BLIND,7659497,NaN,complete,NaN,NaN,computer,Desktop or Laptop,Mac OS 10.15.7,Safari 14.1.2,1440x900,1440x820,End of Day 1,SLS,89,A,Pass,End of Day 1,Pass,NaN,NaN,NaN,Pass,NaN,Pass,NaN,schedule_A,schedule_A,12,5,6,end,Zone1,timelimit_screen,149,NaN,NaN,,NaN,0,1,0,NaN,NaN,1,NaN,NaN,trial_left,redBox.png,redBox.png,yellowBox.png,al1_con.png,22,11,NaN,NaN,0.85,0.85,1,1,1,1,Volatile,Stable,1.126,1.849,1.483,1.689,expert
59,1670940162077,13/12/2022 14:02:42,1670940161974,0,13/12/2022 14:02:41,109680,33,task-xjip,repeat-7g8d#1->-repeat-38fk#1,25915846,BLIND,7659497,NaN,complete,NaN,NaN,computer,Desktop or Laptop,Mac OS 10.15.7,Safari 14.1.2,1440x900,1440x820,End of Day 1,SLS,89,A,Pass,End of Day 1,Pass,NaN,NaN,NaN,Pass,NaN,Pass,NaN,schedule_A,schedule_A,13,7,1,Screen 1,Zone1,continue_button,859,NaN,NaN,,NaN,0,1,0,NaN,NaN,NaN,NaN,NaN,trial_right,redBox.png,yellowBox.png,redBox.png,al1_con.png,23,12,NaN,NaN,0.85,0.85,1,1,1,0,Volatile,Stable,2.361,0.992,0.5,1.975,expert
60,1670940163064,13/12/2022 14:02:43,1670940162958,0,13/12/2022 14:02:42,109680,33,task-xjip,repeat-7g8d#1->-repeat-38fk#1,25915846,BLIND,7659497,NaN,complete,NaN,NaN,computer,Desktop or Laptop,Mac OS 10.15.7,Safari 14.1.2,1440x900,1440x820,End of Day 1,SLS,89,A,Pass,End of Day 1,Pass,NaN,NaN,NaN,Pass,NaN,Pass,NaN,schedule_A,schedule_A,13,7,2,individual,Zone4,timelimit_screen,1000,NaN,NaN,,NaN,0,1,0,NaN,NaN,1,NaN,NaN,trial_right,redBox.png,yellowBox.png,redBox.png,al1_con.png,23,12,NaN,NaN,0.85,0.85,1,1,1,0,Volatile,Stable,2.361,0.992,0.5,1.975,expert
61,1670940164000,13/12/2022 14:02:44,1670940163879,0,13/12/2022 14:02:43,109680,33,task-xjip,repeat-7g8d#1->-repeat-38fk#1,25915846,BLIND,7659497,NaN,complete,NaN,NaN,computer,Desktop or Laptop,Mac OS 10.15.7,Safari 14.1.2,1440x900,1440x820,End of Day 1,SLS,89,A,Pass,End of Day 1,Pass,NaN,NaN,NaN,Pass,NaN,Pass,NaN,schedule_A,schedule_A,13,7,3,offer,Zone3,response_button_image,911,NaN,NaN,redBox.png,1,1,0,0,NaN,NaN,NaN,NaN,NaN,trial_right,redBox.png,yellowBox.png,redBox.png,al1_con.png,23,12,NaN,NaN,0.85,0.85,1,1,1,0,Volatile,Stable,2.361,0.992,0.5,1.975,expert
62,1670940166003,13/12/2022 14:02:46,1670940165875,0,13/12/2022 14:02:45,109680,33,task-xjip,repeat-7g8d#1->-repeat-38fk#1,25915846,BLIND,7659497,NaN,complete,NaN,NaN,computer,Desktop or Laptop,Mac OS 10.15.7,Safari 14.1.2,1440x900,1440x820,End of Day 1,SLS,89,A,Pass,End of Day 1,Pass,NaN,NaN,NaN,Pass,NaN,Pass,NaN,schedule_A,schedule_A,13,7,5,feedback_r,Zone7,timelimit_screen,2000,NaN,NaN,,NaN,0,1,0,NaN,NaN,1,NaN,NaN,trial_right,redBox.png,yellowBox.png,redBox.png,al1_con.png,23,12,NaN,NaN,0.85,0.85,1,1,1,0,Volatile,Stable,2.361,0.992,0.5,1.975,expert
63,1670940166224,13/12/2022 14:02:46,1670940166024,0,13/12/2022 14:02:46,109680,33,task-xjip,repeat-7g8d#1->-repeat-38fk#1,25915846,BLIND,7659497,NaN,complete,NaN,NaN,computer,Desktop or Laptop,Mac OS 10.15.7,Safari 14.1.2,1440x900,1440x820,End of Day 1,SLS,89,A,Pass,End of Day 1,Pass,NaN,NaN,NaN,Pass,NaN,Pass,NaN,schedule_A,schedule_A,13,7,6,end,Zone1,timelimit_screen,150,NaN,NaN,,NaN,0,1,0,NaN,NaN,1,NaN,NaN,trial_right,redBox.png,yellowBox.png,redBox.png,al1_con.png,23,12,NaN,NaN,0.85,0.85,1,1,1,0,Volatile,Stable,2.361,0.992,0.5,1.975,expert
64,1670940167286,13/12/2022 14:02:47,1670940167179,0,13/12/2022 14:02:47,109680,33,task-xjip,repeat-7g8d#1->-repeat-38fk#1,25915846,BLIND,7659497,NaN,complete,NaN,NaN,computer,Desktop or Laptop,Mac OS 10.15.7,Safari 14.1.2,1440x900,1440x820,End of Day 1,SLS,89,A,Pass,End of Day 1,Pass,NaN,NaN,NaN,Pass,NaN,Pass,NaN,schedule_A,schedule_A,14,8,1,Screen 1,Zone1,continue_button,1141,NaN,NaN,,NaN,0,1,0,NaN,NaN,NaN,NaN,NaN,trial_right,redBox.png,redBox.png,yellowBox.png,al1_con.png,24,13,NaN,NaN,0.85,0.85,1,0,0,1,Volatile,Stable,1.05,1.95,1.319,1.487,expert
65,1670940168326,13/12/2022 14:02:48,1670940168175,0,13/12/2022 14:02:48,109680,33,task-xjip,repeat-7g8d#1->-repeat-38fk#1,25915846,BLIND,7659497,NaN,complete,NaN,NaN,computer,Desktop or Laptop,Mac OS 10.15.7,Safari 14.1.2,1440x900,1440x820,End of Day 1,SLS,89,A,Pass,End of Day 1,Pass,NaN,NaN,NaN,Pass,NaN,Pass,NaN,schedule_A,schedule_A,14,8,2,individual,Zone4,timelimit_screen,1000,NaN,NaN,,NaN,0,1,0,NaN,NaN,1,NaN,NaN,trial_right,redBox.png,redBox.png,yellowBox.png,al1_con.png,24,13,NaN,NaN,0.85,0.85,1,0,0,1,Volatile,Stable,1.05,1.95,1.319,1.487,expert
66,1670940169336,13/12/2022 14:02:49,1670940169211,0,13/12/2022 14:02:49,109680,33,task-xjip,repeat-7g8d#1->-repeat-38fk#1,25915846,BLIND,7659497,NaN,complete,NaN,NaN,computer,Desktop or Laptop,Mac OS 10.15.7,Safari 14.1.2,1440x900,1440x820,End of Day 1,SLS,89,A,Pass,End of Day 1,Pass,NaN,NaN,NaN,Pass,NaN,Pass,NaN,schedule_A,schedule_A,14,8,3,offer,Zone3,response_button_image,1026,NaN,NaN,yellowBox.png,1,0,1,0,NaN,NaN,NaN,NaN,NaN,trial_right,redBox.png,redBox.png,yellowBox.png,al1_con.png,24,13,NaN,NaN,0.85,0.85,1,0,0,1,Volatile,Stable,1.05,1.95,1.319,1.487,expert
67,1670940171313,13/12/2022 14:02:51,1670940171208,0,13/12/2022 14:02:51,109680,33,task-xjip,repeat-7g8d#1->-repeat-38fk#1,25915846,BLIND,7659497,NaN,complete,NaN,NaN,computer,Desktop or Laptop,Mac OS 10.15.7,Safari 14.1.2,1440x900,1440x820,End of Day 1,SLS,89,A,Pass,End of Day 1,Pass,NaN,NaN,NaN,Pass,NaN,Pass,NaN,schedule_A,schedule_A,14,8,5,feedback_r,Zone7,timelimit_screen,2000,NaN,NaN,,NaN,0,1,0,NaN,NaN,1,NaN,NaN,trial_right,redBox.png,redBox.png,yellowBox.png,al1_con.png,24,13,NaN,NaN,0.85,0.85,1,0,0,1,Volatile,Stable,1.05,1.95,1.319,1.487,expert
68,1670940171483,13/12/2022 14:02:51,1670940171358,0,13/12/2022 14:02:51,109680,33,task-xjip,repeat-7g8d#1->-repeat-38fk#1,25915846,BLIND,7659497,NaN,complete,NaN,NaN,computer,Desktop or Laptop,Mac OS 10.15.7,Safari 14.1.2,1440x900,1440x820,End of Day 1,SLS,89,A,Pass,End of Day 1,Pass,NaN,NaN,NaN,Pass,NaN,Pass,NaN,schedule_A,schedule_A,14,8,6,end,Zone1,timelimit_screen,150,NaN,NaN,,NaN,0,1,0,NaN,NaN,1,NaN,NaN,trial_right,redBox.png,redBox.png,yellowBox.png,al1_con.png,24,13,NaN,NaN,0.85,0.85,1,0,0,1,Volatile,Stable,1.05,1.95,1.319,1.487,expert
69,1670940172283,13/12/2022 14:02:52,1670940172157,0,13/12/2022 14:02:52,109680,33,task-xjip,repeat-7g8d#1->-repeat-38fk#1,25915846,BLIND,7659497,NaN,complete,NaN,NaN,computer,Desktop or Laptop,Mac OS 10.15.7,Safari 14.1.2,1440x900,1440x820,End of Day 1,SLS,89,A,Pass,End of Day 1,Pass,NaN,NaN,NaN,Pass,NaN,Pass,NaN,schedule_A,schedule_A,15,9,1,Screen 1,Zone1,continue_button,785,NaN,NaN,,NaN,0,1,0,NaN,NaN,NaN,NaN,NaN,trial_right,redBox.png,yellowBox.png,redBox.png,al1_con.png,25,14,NaN,NaN,0.85,0.85,1,1,1,0,Volatile,Stable,3.395,0.84,0.803,1.252,expert
70,1670940173261,13/12/2022 14:02:53,1670940173141,0,13/12/2022 14:02:53,109680,33,task-xjip,repeat-7g8d#1->-repeat-38fk#1,25915846,BLIND,7659497,NaN,complete,NaN,NaN,computer,Desktop or Laptop,Mac OS 10.15.7,Safari 14.1.2,1440x900,1440x820,End of Day 1,SLS,89,A,Pass,End of Day 1,Pass,NaN,NaN,NaN,Pass,NaN,Pass,NaN,schedule_A,schedule_A,15,9,2,individual,Zone4,timelimit_screen,999,NaN,NaN,,NaN,0,1,0,NaN,NaN,1,NaN,NaN,trial_right,redBox.png,yellowBox.png,redBox.png,al1_con.png,25,14,NaN,NaN,0.85,0.85,1,1,1,0,Volatile,Stable,3.395,0.84,0.803,1.252,expert
71,1670940173944,13/12/2022 14:02:53,1670940173822,0,13/12/2022 14:02:53,109680,33,task-xjip,repeat-7g8d#1->-repeat-38fk#1,25915846,BLIND,7659497,NaN,complete,NaN,NaN,computer,Desktop or Laptop,Mac OS 10.15.7,Safari 14.1.2,1440x900,1440x820,End of Day 1,SLS,89,A,Pass,End of Day 1,Pass,NaN,NaN,NaN,Pass,NaN,Pass,NaN,schedule_A,schedule_A,15,9,3,offer,Zone3,response_button_image,677,NaN,NaN,redBox.png,1,1,0,0,NaN,NaN,NaN,NaN,NaN,trial_right,redBox.png,yellowBox.png,redBox.png,al1_con.png,25,14,NaN,NaN,0.85,0.85,1,1,1,0,Volatile,Stable,3.395,0.84,0.803,1.252,expert
72,1670940175987,13/12/2022 14:02:55,1670940175808,0,13/12/2022 14:02:55,109680,33,task-xjip,repeat-7g8d#1->-repeat-38fk#1,25915846,BLIND,7659497,NaN,complete,NaN,NaN,computer,Desktop or Laptop,Mac OS 10.15.7,Safari 14.1.2,1440x900,1440x820,End of Day 1,SLS,89,A,Pass,End of Day 1,Pass,NaN,NaN,NaN,Pass,NaN,Pass,NaN,schedule_A,schedule_A,15,9,5,feedback_r,Zone7,timelimit_screen,2000,NaN,NaN,,NaN,0,1,0,NaN,NaN,1,NaN,NaN,trial_right,redBox.png,yellowBox.png,redBox.png,al1_con.png,25,14,NaN,NaN,0.85,0.85,1,1,1,0,Volatile,Stable,3.395,0.84,0.803,1.252,expert
73,1670940176142,13/12/2022 14:02:56,1670940175957,0,13/12/2022 14:02:55,109680,33,task-xjip,repeat-7g8d#1->-repeat-38fk#1,25915846,BLIND,7659497,NaN,complete,NaN,NaN,computer,Desktop or Laptop,Mac OS 10.15.7,Safari 14.1.2,1440x900,1440x820,End of Day 1,SLS,89,A,Pass,End of Day 1,Pass,NaN,NaN,NaN,Pass,NaN,Pass,NaN,schedule_A,schedule_A,15,9,6,end,Zone1,timelimit_screen,150,NaN,NaN,,NaN,0,1,0,NaN,NaN,1,NaN,NaN,trial_right,redBox.png,yellowBox.png,redBox.png,al1_con.png,25,14,NaN,NaN,0.85,0.85,1,1,1,0,Volatile,Stable,3.395,0.84,0.803,1.252,expert
74,1670940176762,13/12/2022 14:02:56,1670940176648,0,13/12/2022 14:02:56,109680,33,task-xjip,repeat-7g8d#1->-repeat-38fk#1,25915846,BLIND,7659497,NaN,complete,NaN,NaN,computer,Desktop or Laptop,Mac OS 10.15.7,Safari 14.1.2,1440x900,1440x820,End of Day 1,SLS,89,A,Pass,End of Day 1,Pass,NaN,NaN,NaN,Pass,NaN,Pass,NaN,schedule_A,schedule_A,16,10,1,Screen 1,Zone1,continue_button,682,NaN,NaN,,NaN,0,1,0,NaN,NaN,NaN,NaN,NaN,trial_right,yellowBox.png,redBox.png,yellowBox.png,al1_con.png,26,15,NaN,NaN,0.85,0.85,0,1,0,1,Volatile,Stable,2.689,1.067,1.697,2.731,expert
75,1670940177799,13/12/2022 14:02:57,1670940177642,0,13/12/2022 14:02:57,109680,33,task-xjip,repeat-7g8d#1->-repeat-38fk#1,25915846,BLIND,7659497,NaN,complete,NaN,NaN,computer,Desktop or Laptop,Mac OS 10.15.7,Safari 14.1.2,1440x900,1440x820,End of Day 1,SLS,89,A,Pass,End of Day 1,Pass,NaN,NaN,NaN,Pass,NaN,Pass,NaN,schedule_A,schedule_A,16,10,2,individual,Zone4,timelimit_screen,1000,NaN,NaN,,NaN,0,1,0,NaN,NaN,1,NaN,NaN,trial_right,yellowBox.png,redBox.png,yellowBox.png,al1_con.png,26,15,NaN,NaN,0.85,0.85,0,1,0,1,Volatile,Stable,2.689,1.067,1.697,2.731,expert
76,1670940178530,13/12/2022 14:02:58,1670940178425,0,13/12/2022 14:02:58,109680,33,task-xjip,repeat-7g8d#1->-repeat-38fk#1,25915846,BLIND,7659497,NaN,complete,NaN,NaN,computer,Desktop or Laptop,Mac OS 10.15.7,Safari 14.1.2,1440x900,1440x820,End of Day 1,SLS,89,A,Pass,End of Day 1,Pass,NaN,NaN,NaN,Pass,NaN,Pass,NaN,schedule_A,schedule_A,16,10,3,offer,Zone3,response_button_image,775.000000000015,NaN,NaN,yellowBox.png,1,1,0,0,NaN,NaN,NaN,NaN,NaN,trial_right,yellowBox.png,redBox.png,yellowBox.png,al1_con.png,26,15,NaN,NaN,0.85,0.85,0,1,0,1,Volatile,Stable,2.689,1.067,1.697,2.731,expert
77,1670940180527,13/12/2022 14:03:00,1670940180408,0,13/12/2022 14:03:00,109680,33,task-xjip,repeat-7g8d#1->-repeat-38fk#1,25915846,BLIND,7659497,NaN,complete,NaN,NaN,computer,Desktop or Laptop,Mac OS 10.15.7,Safari 14.1.2,1440x900,1440x820,End of Day 1,SLS,89,A,Pass,End of Day 1,Pass,NaN,NaN,NaN,Pass,NaN,Pass,NaN,schedule_A,schedule_A,16,10,5,feedback_r,Zone7,timelimit_screen,2000,NaN,NaN,,NaN,0,1,0,NaN,NaN,1,NaN,NaN,trial_right,yellowBox.png,redBox.png,yellowBox.png,al1_con.png,26,15,NaN,NaN,0.85,0.85,0,1,0,1,Volatile,Stable,2.689,1.067,1.697,2.731,expert
78,1670940180658,13/12/2022 14:03:00,1670940180558,0,13/12/2022 14:03:00,109680,33,task-xjip,repeat-7g8d#1->-repeat-38fk#1,25915846,BLIND,7659497,NaN,complete,NaN,NaN,computer,Desktop or Laptop,Mac OS 10.15.7,Safari 14.1.2,1440x900,1440x820,End of Day 1,SLS,89,A,Pass,End of Day 1,Pass,NaN,NaN,NaN,Pass,NaN,Pass,NaN,schedule_A,schedule_A,16,10,6,end,Zone1,timelimit_screen,150,NaN,NaN,,NaN,0,1,0,NaN,NaN,1,NaN,NaN,trial_right,yellowBox.png,redBox.png,yellowBox.png,al1_con.png,26,15,NaN,NaN,0.85,0.85,0,1,0,1,Volatile,Stable,2.689,1.067,1.697,2.731,expert
79,1670940181465,13/12/2022 14:03:01,1670940181195,0,13/12/2022 14:03:01,109680,33,task-xjip,repeat-7g8d#1->-repeat-38fk#1,25915846,BLIND,7659497,NaN,complete,NaN,NaN,computer,Desktop or Laptop,Mac OS 10.15.7,Safari 14.1.2,1440x900,1440x820,End of Day 1,SLS,89,A,Pass,End of Day 1,Pass,NaN,NaN,NaN,Pass,NaN,Pass,NaN,schedule_A,schedule_A,17,6,1,Screen 1,Zone1,continue_button,628,NaN,NaN,,NaN,0,1,0,NaN,NaN,NaN,NaN,NaN,trial_left,yellowBox.png,yellowBox.png,redBox.png,al1_con.png,27,16,NaN,NaN,0.15,0.85,0,1,0,0,Volatile,Stable,1.378,0.689,0.878,2.076,expert
80,1670940182292,13/12/2022 14:03:02,1670940182191,0,13/12/2022 14:03:02,109680,33,task-xjip,repeat-7g8d#1->-repeat-38fk#1,25915846,BLIND,7659497,NaN,complete,NaN,NaN,computer,Desktop or Laptop,Mac OS 10.15.7,Safari 14.1.2,1440x900,1440x820,End of Day 1,SLS,89,A,Pass,End of Day 1,Pass,NaN,NaN,NaN,Pass,NaN,Pass,NaN,schedule_A,schedule_A,17,6,2,individual,Zone4,timelimit_screen,1000,NaN,NaN,,NaN,0,1,0,NaN,NaN,1,NaN,NaN,trial_left,yellowBox.png,yellowBox.png,redBox.png,al1_con.png,27,16,NaN,NaN,0.15,0.85,0,1,0,0,Volatile,Stable,1.378,0.689,0.878,2.076,expert
81,1670940182948,13/12/2022 14:03:02,1670940182844,0,13/12/2022 14:03:02,109680,33,task-xjip,repeat-7g8d#1->-repeat-38fk#1,25915846,BLIND,7659497,NaN,complete,NaN,NaN,computer,Desktop or Laptop,Mac OS 10.15.7,Safari 14.1.2,1440x900,1440x820,End of Day 1,SLS,89,A,Pass,End of Day 1,Pass,NaN,NaN,NaN,Pass,NaN,Pass,NaN,schedule_A,schedule_A,17,6,3,offer,Zone2,response_button_image,641.999999999985,NaN,NaN,yellowBox.png,1,1,0,0,NaN,NaN,NaN,NaN,NaN,trial_left,yellowBox.png,yellowBox.png,redBox.png,al1_con.png,27,16,NaN,NaN,0.15,0.85,0,1,0,0,Volatile,Stable,1.378,0.689,0.878,2.076,expert
82,1670940184958,13/12/2022 14:03:04,1670940184841,0,13/12/2022 14:03:04,109680,33,task-xjip,repeat-7g8d#1->-repeat-38fk#1,25915846,BLIND,7659497,NaN,complete,NaN,NaN,computer,Desktop or Laptop,Mac OS 10.15.7,Safari 14.1.2,1440x900,1440x820,End of Day 1,SLS,89,A,Pass,End of Day 1,Pass,NaN,NaN,NaN,Pass,NaN,Pass,NaN,schedule_A,schedule_A,17,6,4,feedback_l,Zone7,timelimit_screen,2000,NaN,NaN,,NaN,0,1,0,NaN,NaN,1,NaN,NaN,trial_left,yellowBox.png,yellowBox.png,redBox.png,al1_con.png,27,16,NaN,NaN,0.15,0.85,0,1,0,0,Volatile,Stable,1.378,0.689,0.878,2.076,expert
83,1670940185088,13/12/2022 14:03:05,1670940184991,0,13/12/2022 14:03:04,109680,33,task-xjip,repeat-7g8d#1->-repeat-38fk#1,25915846,BLIND,7659497,NaN,complete,NaN,NaN,computer,Desktop or Laptop,Mac OS 10.15.7,Safari 14.1.2,1440x900,1440x820,End of Day 1,SLS,89,A,Pass,End of Day 1,Pass,NaN,NaN,NaN,Pass,NaN,Pass,NaN,schedule_A,schedule_A,17,6,6,end,Zone1,timelimit_screen,150,NaN,NaN,,NaN,0,1,0,NaN,NaN,1,NaN,NaN,trial_left,yellowBox.png,yellowBox.png,redBox.png,al1_con.png,27,16,NaN,NaN,0.15,0.85,0,1,0,0,Volatile,Stable,1.378,0.689,0.878,2.076,expert
84,1670940186054,13/12/2022 14:03:06,1670940185919,0,13/12/2022 14:03:05,109680,33,task-xjip,repeat-7g8d#1->-repeat-38fk#1,25915846,BLIND,7659497,NaN,complete,NaN,NaN,computer,Desktop or Laptop,Mac OS 10.15.7,Safari 14.1.2,1440x900,1440x820,End of Day 1,SLS,89,A,Pass,End of Day 1,Pass,NaN,NaN,NaN,Pass,NaN,Pass,NaN,schedule_A,schedule_A,18,11,1,Screen 1,Zone1,continue_button,917,NaN,NaN,,NaN,0,1,0,NaN,NaN,NaN,NaN,NaN,trial_right,yellowBox.png,redBox.png,yellowBox.png,al1_con.png,28,17,NaN,NaN,0.15,0.85,0,1,0,1,Volatile,Stable,2.714,0.739,1.975,1.134,expert
85,1670940187018,13/12/2022 14:03:07,1670940186908,0,13/12/2022 14:03:06,109680,33,task-xjip,repeat-7g8d#1->-repeat-38fk#1,25915846,BLIND,7659497,NaN,complete,NaN,NaN,computer,Desktop or Laptop,Mac OS 10.15.7,Safari 14.1.2,1440x900,1440x820,End of Day 1,SLS,89,A,Pass,End of Day 1,Pass,NaN,NaN,NaN,Pass,NaN,Pass,NaN,schedule_A,schedule_A,18,11,2,individual,Zone4,timelimit_screen,1001,NaN,NaN,,NaN,0,1,0,NaN,NaN,1,NaN,NaN,trial_right,yellowBox.png,redBox.png,yellowBox.png,al1_con.png,28,17,NaN,NaN,0.15,0.85,0,1,0,1,Volatile,Stable,2.714,0.739,1.975,1.134,expert
86,1670940187787,13/12/2022 14:03:07,1670940187671,0,13/12/2022 14:03:07,109680,33,task-xjip,repeat-7g8d#1->-repeat-38fk#1,25915846,BLIND,7659497,NaN,complete,NaN,NaN,computer,Desktop or Laptop,Mac OS 10.15.7,Safari 14.1.2,1440x900,1440x820,End of Day 1,SLS,89,A,Pass,End of Day 1,Pass,NaN,NaN,NaN,Pass,NaN,Pass,NaN,schedule_A,schedule_A,18,11,3,offer,Zone3,response_button_image,756.000000000015,NaN,NaN,yellowBox.png,1,1,0,0,NaN,NaN,NaN,NaN,NaN,trial_right,yellowBox.png,redBox.png,yellowBox.png,al1_con.png,28,17,NaN,NaN,0.15,0.85,0,1,0,1,Volatile,Stable,2.714,0.739,1.975,1.134,expert
87,1670940189765,13/12/2022 14:03:09,1670940189658,0,13/12/2022 14:03:09,109680,33,task-xjip,repeat-7g8d#1->-repeat-38fk#1,25915846,BLIND,7659497,NaN,complete,NaN,NaN,computer,Desktop or Laptop,Mac OS 10.15.7,Safari 14.1.2,1440x900,1440x820,End of Day 1,SLS,89,A,Pass,End of Day 1,Pass,NaN,NaN,NaN,Pass,NaN,Pass,NaN,schedule_A,schedule_A,18,11,5,feedback_r,Zone7,timelimit_screen,2000,NaN,NaN,,NaN,0,1,0,NaN,NaN,1,NaN,NaN,trial_right,yellowBox.png,redBox.png,yellowBox.png,al1_con.png,28,17,NaN,NaN,0.15,0.85,0,1,0,1,Volatile,Stable,2.714,0.739,1.975,1.134,expert
88,1670940189900,13/12/2022 14:03:09,1670940189808,0,13/12/2022 14:03:09,109680,33,task-xjip,repeat-7g8d#1->-repeat-38fk#1,25915846,BLIND,7659497,NaN,complete,NaN,NaN,computer,Desktop or Laptop,Mac OS 10.15.7,Safari 14.1.2,1440x900,1440x820,End of Day 1,SLS,89,A,Pass,End of Day 1,Pass,NaN,NaN,NaN,Pass,NaN,Pass,NaN,schedule_A,schedule_A,18,11,6,end,Zone1,timelimit_screen,150,NaN,NaN,,NaN,0,1,0,NaN,NaN,1,NaN,NaN,trial_right,yellowBox.png,redBox.png,yellowBox.png,al1_con.png,28,17,NaN,NaN,0.15,0.85,0,1,0,1,Volatile,Stable,2.714,0.739,1.975,1.134,expert
89,1670940190890,13/12/2022 14:03:10,1670940190787,0,13/12/2022 14:03:10,109680,33,task-xjip,repeat-7g8d#1->-repeat-38fk#1,25915846,BLIND,7659497,NaN,complete,NaN,NaN,computer,Desktop or Laptop,Mac OS 10.15.7,Safari 14.1.2,1440x900,1440x820,End of Day 1,SLS,89,A,Pass,End of Day 1,Pass,NaN,NaN,NaN,Pass,NaN,Pass,NaN,schedule_A,schedule_A,19,7,1,Screen 1,Zone1,continue_button,963.999999999985,NaN,NaN,,NaN,0,1,0,NaN,NaN,NaN,NaN,NaN,trial_left,yellowBox.png,yellowBox.png,redBox.png,al1_con.png,29,18,NaN,NaN,0.15,0.85,0,1,0,0,Volatile,Stable,3.874,0.676,1.496,1.639,expert
90,1670940191889,13/12/2022 14:03:11,1670940191775,0,13/12/2022 14:03:11,109680,33,task-xjip,repeat-7g8d#1->-repeat-38fk#1,25915846,BLIND,7659497,NaN,complete,NaN,NaN,computer,Desktop or Laptop,Mac OS 10.15.7,Safari 14.1.2,1440x900,1440x820,End of Day 1,SLS,89,A,Pass,End of Day 1,Pass,NaN,NaN,NaN,Pass,NaN,Pass,NaN,schedule_A,schedule_A,19,7,2,individual,Zone4,timelimit_screen,1000,NaN,NaN,,NaN,0,1,0,NaN,NaN,1,NaN,NaN,trial_left,yellowBox.png,yellowBox.png,redBox.png,al1_con.png,29,18,NaN,NaN,0.15,0.85,0,1,0,0,Volatile,Stable,3.874,0.676,1.496,1.639,expert
91,1670940192840,13/12/2022 14:03:12,1670940192731,0,13/12/2022 14:03:12,109680,33,task-xjip,repeat-7g8d#1->-repeat-38fk#1,25915846,BLIND,7659497,NaN,complete,NaN,NaN,computer,Desktop or Laptop,Mac OS 10.15.7,Safari 14.1.2,1440x900,1440x820,End of Day 1,SLS,89,A,Pass,End of Day 1,Pass,NaN,NaN,NaN,Pass,NaN,Pass,NaN,schedule_A,schedule_A,19,7,3,offer,Zone2,response_button_image,947,NaN,NaN,yellowBox.png,1,1,0,0,NaN,NaN,NaN,NaN,NaN,trial_left,yellowBox.png,yellowBox.png,redBox.png,al1_con.png,29,18,NaN,NaN,0.15,0.85,0,1,0,0,Volatile,Stable,3.874,0.676,1.496,1.639,expert
92,1670940194844,13/12/2022 14:03:14,1670940194725,0,13/12/2022 14:03:14,109680,33,task-xjip,repeat-7g8d#1->-repeat-38fk#1,25915846,BLIND,7659497,NaN,complete,NaN,NaN,computer,Desktop or Laptop,Mac OS 10.15.7,Safari 14.1.2,1440x900,1440x820,End of Day 1,SLS,89,A,Pass,End of Day 1,Pass,NaN,NaN,NaN,Pass,NaN,Pass,NaN,schedule_A,schedule_A,19,7,4,feedback_l,Zone7,timelimit_screen,2000,NaN,NaN,,NaN,0,1,0,NaN,NaN,1,NaN,NaN,trial_left,yellowBox.png,yellowBox.png,redBox.png,al1_con.png,29,18,NaN,NaN,0.15,0.85,0,1,0,0,Volatile,Stable,3.874,0.676,1.496,1.639,expert
93,1670940194981,13/12/2022 14:03:14,1670940194874,0,13/12/2022 14:03:14,109680,33,task-xjip,repeat-7g8d#1->-repeat-38fk#1,25915846,BLIND,7659497,NaN,complete,NaN,NaN,computer,Desktop or Laptop,Mac OS 10.15.7,Safari 14.1.2,1440x900,1440x820,End of Day 1,SLS,89,A,Pass,End of Day 1,Pass,NaN,NaN,NaN,Pass,NaN,Pass,NaN,schedule_A,schedule_A,19,7,6,end,Zone1,timelimit_screen,150,NaN,NaN,,NaN,0,1,0,NaN,NaN,1,NaN,NaN,trial_left,yellowBox.png,yellowBox.png,redBox.png,al1_con.png,29,18,NaN,NaN,0.15,0.85,0,1,0,0,Volatile,Stable,3.874,0.676,1.496,1.639,expert
94,1670940195988,13/12/2022 14:03:15,1670940195870,0,13/12/2022 14:03:15,109680,33,task-xjip,repeat-7g8d#1->-repeat-38fk#1,25915846,BLIND,7659497,NaN,complete,NaN,NaN,computer,Desktop or Laptop,Mac OS 10.15.7,Safari 14.1.2,1440x900,1440x820,End of Day 1,SLS,89,A,Pass,End of Day 1,Pass,NaN,NaN,NaN,Pass,NaN,Pass,NaN,schedule_A,schedule_A,20,12,1,Screen 1,Zone1,continue_button,982,NaN,NaN,,NaN,0,1,0,NaN,NaN,NaN,NaN,NaN,trial_right,yellowBox.png,yellowBox.png,redBox.png,al1_con.png,30,19,NaN,NaN,0.15,0.85,0,0,1,0,Volatile,Stable,1.252,1.193,0.853,2.681,expert
95,1670940196967,13/12/2022 14:03:16,1670940196858,0,13/12/2022 14:03:16,109680,33,task-xjip,repeat-7g8d#1->-repeat-38fk#1,25915846,BLIND,7659497,NaN,complete,NaN,NaN,computer,Desktop or Laptop,Mac OS 10.15.7,Safari 14.1.2,1440x900,1440x820,End of Day 1,SLS,89,A,Pass,End of Day 1,Pass,NaN,NaN,NaN,Pass,NaN,Pass,NaN,schedule_A,schedule_A,20,12,2,individual,Zone4,timelimit_screen,1000,NaN,NaN,,NaN,0,1,0,NaN,NaN,1,NaN,NaN,trial_right,yellowBox.png,yellowBox.png,redBox.png,al1_con.png,30,19,NaN,NaN,0.15,0.85,0,0,1,0,Volatile,Stable,1.252,1.193,0.853,2.681,expert
96,1670940197947,13/12/2022 14:03:17,1670940197823,0,13/12/2022 14:03:17,109680,33,task-xjip,repeat-7g8d#1->-repeat-38fk#1,25915846,BLIND,7659497,NaN,complete,NaN,NaN,computer,Desktop or Laptop,Mac OS 10.15.7,Safari 14.1.2,1440x900,1440x820,End of Day 1,SLS,89,A,Pass,End of Day 1,Pass,NaN,NaN,NaN,Pass,NaN,Pass,NaN,schedule_A,schedule_A,20,12,3,offer,Zone3,response_button_image,958,NaN,NaN,redBox.png,1,0,1,0,NaN,NaN,NaN,NaN,NaN,trial_right,yellowBox.png,yellowBox.png,redBox.png,al1_con.png,30,19,NaN,NaN,0.15,0.85,0,0,1,0,Volatile,Stable,1.252,1.193,0.853,2.681,expert
97,1670940199923,13/12/2022 14:03:19,1670940199808,0,13/12/2022 14:03:19,109680,33,task-xjip,repeat-7g8d#1->-repeat-38fk#1,25915846,BLIND,7659497,NaN,complete,NaN,NaN,computer,Desktop or Laptop,Mac OS 10.15.7,Safari 14.1.2,1440x900,1440x820,End of Day 1,SLS,89,A,Pass,End of Day 1,Pass,NaN,NaN,NaN,Pass,NaN,Pass,NaN,schedule_A,schedule_A,20,12,5,feedback_r,Zone7,timelimit_screen,2000,NaN,NaN,,NaN,0,1,0,NaN,NaN,1,NaN,NaN,trial_right,yellowBox.png,yellowBox.png,redBox.png,al1_con.png,30,19,NaN,NaN,0.15,0.85,0,0,1,0,Volatile,Stable,1.252,1.193,0.853,2.681,expert
98,1670940200069,13/12/2022 14:03:20,1670940199958,0,13/12/2022 14:03:19,109680,33,task-xjip,repeat-7g8d#1->-repeat-38fk#1,25915846,BLIND,7659497,NaN,complete,NaN,NaN,computer,Desktop or Laptop,Mac OS 10.15.7,Safari 14.1.2,1440x900,1440x820,End of Day 1,SLS,89,A,Pass,End of Day 1,Pass,NaN,NaN,NaN,Pass,NaN,Pass,NaN,schedule_A,schedule_A,20,12,6,end,Zone1,timelimit_screen,150,NaN,NaN,,NaN,0,1,0,NaN,NaN,1,NaN,NaN,trial_right,yellowBox.png,yellowBox.png,redBox.png,al1_con.png,30,19,NaN,NaN,0.15,0.85,0,0,1,0,Volatile,Stable,1.252,1.193,0.853,2.681,expert
99,1670940201095,13/12/2022 14:03:21,1670940200994,0,13/12/2022 14:03:20,109680,33,task-xjip,repeat-7g8d#1->-repeat-38fk#1,25915846,BLIND,7659497,NaN,complete,NaN,NaN,computer,Desktop or Laptop,Mac OS 10.15.7,Safari 14.1.2,1440x900,1440x820,End of Day 1,SLS,89,A,Pass,End of Day 1,Pass,NaN,NaN,NaN,Pass,NaN,Pass,NaN,schedule_A,schedule_A,21,13,1,Screen 1,Zone1,continue_button,1021.99999999999,NaN,NaN,,NaN,0,1,0,NaN,NaN,NaN,NaN,NaN,trial_right,yellowBox.png,redBox.png,yellowBox.png,al1_con.png,41,20,NaN,NaN,0.15,0.85,0,1,0,1,Volatile,Stable,3.521,1.723,1.37,1.655,expert
100,1670940202109,13/12/2022 14:03:22,1670940201992,0,13/12/2022 14:03:21,109680,33,task-xjip,repeat-7g8d#1->-repeat-38fk#1,25915846,BLIND,7659497,NaN,complete,NaN,NaN,computer,Desktop or Laptop,Mac OS 10.15.7,Safari 14.1.2,1440x900,1440x820,End of Day 1,SLS,89,A,Pass,End of Day 1,Pass,NaN,NaN,NaN,Pass,NaN,Pass,NaN,schedule_A,schedule_A,21,13,2,individual,Zone4,timelimit_screen,1001,NaN,NaN,,NaN,0,1,0,NaN,NaN,1,NaN,NaN,trial_right,yellowBox.png,redBox.png,yellowBox.png,al1_con.png,41,20,NaN,NaN,0.15,0.85,0,1,0,1,Volatile,Stable,3.521,1.723,1.37,1.655,expert
101,1670940202790,13/12/2022 14:03:22,1670940202666,0,13/12/2022 14:03:22,109680,33,task-xjip,repeat-7g8d#1->-repeat-38fk#1,25915846,BLIND,7659497,NaN,complete,NaN,NaN,computer,Desktop or Laptop,Mac OS 10.15.7,Safari 14.1.2,1440x900,1440x820,End of Day 1,SLS,89,A,Pass,End of Day 1,Pass,NaN,NaN,NaN,Pass,NaN,Pass,NaN,schedule_A,schedule_A,21,13,3,offer,Zone3,response_button_image,664,NaN,NaN,yellowBox.png,1,1,0,0,NaN,NaN,NaN,NaN,NaN,trial_right,yellowBox.png,redBox.png,yellowBox.png,al1_con.png,41,20,NaN,NaN,0.15,0.85,0,1,0,1,Volatile,Stable,3.521,1.723,1.37,1.655,expert
102,1670940204788,13/12/2022 14:03:24,1670940204658,0,13/12/2022 14:03:24,109680,33,task-xjip,repeat-7g8d#1->-repeat-38fk#1,25915846,BLIND,7659497,NaN,complete,NaN,NaN,computer,Desktop or Laptop,Mac OS 10.15.7,Safari 14.1.2,1440x900,1440x820,End of Day 1,SLS,89,A,Pass,End of Day 1,Pass,NaN,NaN,NaN,Pass,NaN,Pass,NaN,schedule_A,schedule_A,21,13,5,feedback_r,Zone7,timelimit_screen,2000,NaN,NaN,,NaN,0,1,0,NaN,NaN,1,NaN,NaN,trial_right,yellowBox.png,redBox.png,yellowBox.png,al1_con.png,41,20,NaN,NaN,0.15,0.85,0,1,0,1,Volatile,Stable,3.521,1.723,1.37,1.655,expert
103,1670940204917,13/12/2022 14:03:24,1670940204808,0,13/12/2022 14:03:24,109680,33,task-xjip,repeat-7g8d#1->-repeat-38fk#1,25915846,BLIND,7659497,NaN,complete,NaN,NaN,computer,Desktop or Laptop,Mac OS 10.15.7,Safari 14.1.2,1440x900,1440x820,End of Day 1,SLS,89,A,Pass,End of Day 1,Pass,NaN,NaN,NaN,Pass,NaN,Pass,NaN,schedule_A,schedule_A,21,13,6,end,Zone1,timelimit_screen,150,NaN,NaN,,NaN,0,1,0,NaN,NaN,1,NaN,NaN,trial_right,yellowBox.png,redBox.png,yellowBox.png,al1_con.png,41,20,NaN,NaN,0.15,0.85,0,1,0,1,Volatile,Stable,3.521,1.723,1.37,1.655,expert
104,1670940205673,13/12/2022 14:03:25,1670940205565,0,13/12/2022 14:03:25,109680,33,task-xjip,repeat-7g8d#1->-repeat-38fk#1,25915846,BLIND,7659497,NaN,complete,NaN,NaN,computer,Desktop or Laptop,Mac OS 10.15.7,Safari 14.1.2,1440x900,1440x820,End of Day 1,SLS,89,A,Pass,End of Day 1,Pass,NaN,NaN,NaN,Pass,NaN,Pass,NaN,schedule_A,schedule_A,22,14,1,Screen 1,Zone1,continue_button,746,NaN,NaN,,NaN,0,1,0,NaN,NaN,NaN,NaN,NaN,trial_right,redBox.png,yellowBox.png,redBox.png,al1_con.png,42,21,NaN,NaN,0.85,0.85,1,1,1,0,Stable,Stable,2.336,0.651,1.685,2.882,expert
105,1670940206665,13/12/2022 14:03:26,1670940206558,0,13/12/2022 14:03:26,109680,33,task-xjip,repeat-7g8d#1->-repeat-38fk#1,25915846,BLIND,7659497,NaN,complete,NaN,NaN,computer,Desktop or Laptop,Mac OS 10.15.7,Safari 14.1.2,1440x900,1440x820,End of Day 1,SLS,89,A,Pass,End of Day 1,Pass,NaN,NaN,NaN,Pass,NaN,Pass,NaN,schedule_A,schedule_A,22,14,2,individual,Zone4,timelimit_screen,1000,NaN,NaN,,NaN,0,1,0,NaN,NaN,1,NaN,NaN,trial_right,redBox.png,yellowBox.png,redBox.png,al1_con.png,42,21,NaN,NaN,0.85,0.85,1,1,1,0,Stable,Stable,2.336,0.651,1.685,2.882,expert
106,1670940207422,13/12/2022 14:03:27,1670940207318,0,13/12/2022 14:03:27,109680,33,task-xjip,repeat-7g8d#1->-repeat-38fk#1,25915846,BLIND,7659497,NaN,complete,NaN,NaN,computer,Desktop or Laptop,Mac OS 10.15.7,Safari 14.1.2,1440x900,1440x820,End of Day 1,SLS,89,A,Pass,End of Day 1,Pass,NaN,NaN,NaN,Pass,NaN,Pass,NaN,schedule_A,schedule_A,22,14,3,offer,Zone3,response_button_image,750.999999999985,NaN,NaN,redBox.png,1,1,0,0,NaN,NaN,NaN,NaN,NaN,trial_right,redBox.png,yellowBox.png,redBox.png,al1_con.png,42,21,NaN,NaN,0.85,0.85,1,1,1,0,Stable,Stable,2.336,0.651,1.685,2.882,expert
107,1670940209418,13/12/2022 14:03:29,1670940209308,0,13/12/2022 14:03:29,109680,33,task-xjip,repeat-7g8d#1->-repeat-38fk#1,25915846,BLIND,7659497,NaN,complete,NaN,NaN,computer,Desktop or Laptop,Mac OS 10.15.7,Safari 14.1.2,1440x900,1440x820,End of Day 1,SLS,89,A,Pass,End of Day 1,Pass,NaN,NaN,NaN,Pass,NaN,Pass,NaN,schedule_A,schedule_A,22,14,5,feedback_r,Zone7,timelimit_screen,2000,NaN,NaN,,NaN,0,1,0,NaN,NaN,1,NaN,NaN,trial_right,redBox.png,yellowBox.png,redBox.png,al1_con.png,42,21,NaN,NaN,0.85,0.85,1,1,1,0,Stable,Stable,2.336,0.651,1.685,2.882,expert
108,1670940209571,13/12/2022 14:03:29,1670940209458,0,13/12/2022 14:03:29,109680,33,task-xjip,repeat-7g8d#1->-repeat-38fk#1,25915846,BLIND,7659497,NaN,complete,NaN,NaN,computer,Desktop or Laptop,Mac OS 10.15.7,Safari 14.1.2,1440x900,1440x820,End of Day 1,SLS,89,A,Pass,End of Day 1,Pass,NaN,NaN,NaN,Pass,NaN,Pass,NaN,schedule_A,schedule_A,22,14,6,end,Zone1,timelimit_screen,150,NaN,NaN,,NaN,0,1,0,NaN,NaN,1,NaN,NaN,trial_right,redBox.png,yellowBox.png,redBox.png,al1_con.png,42,21,NaN,NaN,0.85,0.85,1,1,1,0,Stable,Stable,2.336,0.651,1.685,2.882,expert
109,1670940210592,13/12/2022 14:03:30,1670940210432,0,13/12/2022 14:03:30,109680,33,task-xjip,repeat-7g8d#1->-repeat-38fk#1,25915846,BLIND,7659497,NaN,complete,NaN,NaN,computer,Desktop or Laptop,Mac OS 10.15.7,Safari 14.1.2,1440x900,1440x820,End of Day 1,SLS,89,A,Pass,End of Day 1,Pass,NaN,NaN,NaN,Pass,NaN,Pass,NaN,schedule_A,schedule_A,23,15,1,Screen 1,Zone1,continue_button,964,NaN,NaN,,NaN,0,1,0,NaN,NaN,NaN,NaN,NaN,trial_right,redBox.png,yellowBox.png,redBox.png,al1_con.png,43,22,NaN,NaN,0.85,0.85,1,1,1,0,Stable,Stable,3.622,1.319,1.193,1.067,expert
110,1670940211538,13/12/2022 14:03:31,1670940211424,0,13/12/2022 14:03:31,109680,33,task-xjip,repeat-7g8d#1->-repeat-38fk#1,25915846,BLIND,7659497,NaN,complete,NaN,NaN,computer,Desktop or Laptop,Mac OS 10.15.7,Safari 14.1.2,1440x900,1440x820,End of Day 1,SLS,89,A,Pass,End of Day 1,Pass,NaN,NaN,NaN,Pass,NaN,Pass,NaN,schedule_A,schedule_A,23,15,2,individual,Zone4,timelimit_screen,999,NaN,NaN,,NaN,0,1,0,NaN,NaN,1,NaN,NaN,trial_right,redBox.png,yellowBox.png,redBox.png,al1_con.png,43,22,NaN,NaN,0.85,0.85,1,1,1,0,Stable,Stable,3.622,1.319,1.193,1.067,expert
111,1670940212418,13/12/2022 14:03:32,1670940212305,0,13/12/2022 14:03:32,109680,33,task-xjip,repeat-7g8d#1->-repeat-38fk#1,25915846,BLIND,7659497,NaN,complete,NaN,NaN,computer,Desktop or Laptop,Mac OS 10.15.7,Safari 14.1.2,1440x900,1440x820,End of Day 1,SLS,89,A,Pass,End of Day 1,Pass,NaN,NaN,NaN,Pass,NaN,Pass,NaN,schedule_A,schedule_A,23,15,3,offer,Zone3,response_button_image,871.000000000015,NaN,NaN,redBox.png,1,1,0,0,NaN,NaN,NaN,NaN,NaN,trial_right,redBox.png,yellowBox.png,redBox.png,al1_con.png,43,22,NaN,NaN,0.85,0.85,1,1,1,0,Stable,Stable,3.622,1.319,1.193,1.067,expert
112,1670940214395,13/12/2022 14:03:34,1670940214291,0,13/12/2022 14:03:34,109680,33,task-xjip,repeat-7g8d#1->-repeat-38fk#1,25915846,BLIND,7659497,NaN,complete,NaN,NaN,computer,Desktop or Laptop,Mac OS 10.15.7,Safari 14.1.2,1440x900,1440x820,End of Day 1,SLS,89,A,Pass,End of Day 1,Pass,NaN,NaN,NaN,Pass,NaN,Pass,NaN,schedule_A,schedule_A,23,15,5,feedback_r,Zone7,timelimit_screen,2000,NaN,NaN,,NaN,0,1,0,NaN,NaN,1,NaN,NaN,trial_right,redBox.png,yellowBox.png,redBox.png,al1_con.png,43,22,NaN,NaN,0.85,0.85,1,1,1,0,Stable,Stable,3.622,1.319,1.193,1.067,expert
113,1670940214561,13/12/2022 14:03:34,1670940214441,0,13/12/2022 14:03:34,109680,33,task-xjip,repeat-7g8d#1->-repeat-38fk#1,25915846,BLIND,7659497,NaN,complete,NaN,NaN,computer,Desktop or Laptop,Mac OS 10.15.7,Safari 14.1.2,1440x900,1440x820,End of Day 1,SLS,89,A,Pass,End of Day 1,Pass,NaN,NaN,NaN,Pass,NaN,Pass,NaN,schedule_A,schedule_A,23,15,6,end,Zone1,timelimit_screen,150,NaN,NaN,,NaN,0,1,0,NaN,NaN,1,NaN,NaN,trial_right,redBox.png,yellowBox.png,redBox.png,al1_con.png,43,22,NaN,NaN,0.85,0.85,1,1,1,0,Stable,Stable,3.622,1.319,1.193,1.067,expert
114,1670940215424,13/12/2022 14:03:35,1670940215307,0,13/12/2022 14:03:35,109680,33,task-xjip,repeat-7g8d#1->-repeat-38fk#1,25915846,BLIND,7659497,NaN,complete,NaN,NaN,computer,Desktop or Laptop,Mac OS 10.15.7,Safari 14.1.2,1440x900,1440x820,End of Day 1,SLS,89,A,Pass,End of Day 1,Pass,NaN,NaN,NaN,Pass,NaN,Pass,NaN,schedule_A,schedule_A,24,8,1,Screen 1,Zone1,continue_button,852.000000000015,NaN,NaN,,NaN,0,1,0,NaN,NaN,NaN,NaN,NaN,trial_left,redBox.png,redBox.png,yellowBox.png,al1_con.png,44,23,NaN,NaN,0.85,0.85,1,1,1,1,Stable,Stable,1.731,0.853,2,1.202,expert
115,1670940216416,13/12/2022 14:03:36,1670940216292,0,13/12/2022 14:03:36,109680,33,task-xjip,repeat-7g8d#1->-repeat-38fk#1,25915846,BLIND,7659497,NaN,complete,NaN,NaN,computer,Desktop or Laptop,Mac OS 10.15.7,Safari 14.1.2,1440x900,1440x820,End of Day 1,SLS,89,A,Pass,End of Day 1,Pass,NaN,NaN,NaN,Pass,NaN,Pass,NaN,schedule_A,schedule_A,24,8,2,individual,Zone4,timelimit_screen,1001,NaN,NaN,,NaN,0,1,0,NaN,NaN,1,NaN,NaN,trial_left,redBox.png,redBox.png,yellowBox.png,al1_con.png,44,23,NaN,NaN,0.85,0.85,1,1,1,1,Stable,Stable,1.731,0.853,2,1.202,expert
116,1670940217260,13/12/2022 14:03:37,1670940217141,0,13/12/2022 14:03:37,109680,33,task-xjip,repeat-7g8d#1->-repeat-38fk#1,25915846,BLIND,7659497,NaN,complete,NaN,NaN,computer,Desktop or Laptop,Mac OS 10.15.7,Safari 14.1.2,1440x900,1440x820,End of Day 1,SLS,89,A,Pass,End of Day 1,Pass,NaN,NaN,NaN,Pass,NaN,Pass,NaN,schedule_A,schedule_A,24,8,3,offer,Zone2,response_button_image,838.999999999985,NaN,NaN,redBox.png,1,1,0,0,NaN,NaN,NaN,NaN,NaN,trial_left,redBox.png,redBox.png,yellowBox.png,al1_con.png,44,23,NaN,NaN,0.85,0.85,1,1,1,1,Stable,Stable,1.731,0.853,2,1.202,expert
117,1670940219294,13/12/2022 14:03:39,1670940219125,0,13/12/2022 14:03:39,109680,33,task-xjip,repeat-7g8d#1->-repeat-38fk#1,25915846,BLIND,7659497,NaN,complete,NaN,NaN,computer,Desktop or Laptop,Mac OS 10.15.7,Safari 14.1.2,1440x900,1440x820,End of Day 1,SLS,89,A,Pass,End of Day 1,Pass,NaN,NaN,NaN,Pass,NaN,Pass,NaN,schedule_A,schedule_A,24,8,4,feedback_l,Zone7,timelimit_screen,2000,NaN,NaN,,NaN,0,1,0,NaN,NaN,1,NaN,NaN,trial_left,redBox.png,redBox.png,yellowBox.png,al1_con.png,44,23,NaN,NaN,0.85,0.85,1,1,1,1,Stable,Stable,1.731,0.853,2,1.202,expert
118,1670940219382,13/12/2022 14:03:39,1670940219274,0,13/12/2022 14:03:39,109680,33,task-xjip,repeat-7g8d#1->-repeat-38fk#1,25915846,BLIND,7659497,NaN,complete,NaN,NaN,computer,Desktop or Laptop,Mac OS 10.15.7,Safari 14.1.2,1440x900,1440x820,End of Day 1,SLS,89,A,Pass,End of Day 1,Pass,NaN,NaN,NaN,Pass,NaN,Pass,NaN,schedule_A,schedule_A,24,8,6,end,Zone1,timelimit_screen,150,NaN,NaN,,NaN,0,1,0,NaN,NaN,1,NaN,NaN,trial_left,redBox.png,redBox.png,yellowBox.png,al1_con.png,44,23,NaN,NaN,0.85,0.85,1,1,1,1,Stable,Stable,1.731,0.853,2,1.202,expert
119,1670940220150,13/12/2022 14:03:40,1670940220047,0,13/12/2022 14:03:40,109680,33,task-xjip,repeat-7g8d#1->-repeat-38fk#1,25915846,BLIND,7659497,NaN,complete,NaN,NaN,computer,Desktop or Laptop,Mac OS 10.15.7,Safari 14.1.2,1440x900,1440x820,End of Day 1,SLS,89,A,Pass,End of Day 1,Pass,NaN,NaN,NaN,Pass,NaN,Pass,NaN,schedule_A,schedule_A,25,16,1,Screen 1,Zone1,continue_button,758,NaN,NaN,,NaN,0,1,0,NaN,NaN,NaN,NaN,NaN,trial_right,redBox.png,yellowBox.png,redBox.png,al1_con.png,45,24,NaN,NaN,0.85,0.85,1,1,1,0,Stable,Stable,2.109,1.798,1.508,2.782,expert
120,1670940221162,13/12/2022 14:03:41,1670940221041,0,13/12/2022 14:03:41,109680,33,task-xjip,repeat-7g8d#1->-repeat-38fk#1,25915846,BLIND,7659497,NaN,complete,NaN,NaN,computer,Desktop or Laptop,Mac OS 10.15.7,Safari 14.1.2,1440x900,1440x820,End of Day 1,SLS,89,A,Pass,End of Day 1,Pass,NaN,NaN,NaN,Pass,NaN,Pass,NaN,schedule_A,schedule_A,25,16,2,individual,Zone4,timelimit_screen,1000,NaN,NaN,,NaN,0,1,0,NaN,NaN,1,NaN,NaN,trial_right,redBox.png,yellowBox.png,redBox.png,al1_con.png,45,24,NaN,NaN,0.85,0.85,1,1,1,0,Stable,Stable,2.109,1.798,1.508,2.782,expert
121,1670940222070,13/12/2022 14:03:42,1670940221960,0,13/12/2022 14:03:41,109680,33,task-xjip,repeat-7g8d#1->-repeat-38fk#1,25915846,BLIND,7659497,NaN,complete,NaN,NaN,computer,Desktop or Laptop,Mac OS 10.15.7,Safari 14.1.2,1440x900,1440x820,End of Day 1,SLS,89,A,Pass,End of Day 1,Pass,NaN,NaN,NaN,Pass,NaN,Pass,NaN,schedule_A,schedule_A,25,16,3,offer,Zone3,response_button_image,909.000000000029,NaN,NaN,redBox.png,1,1,0,0,NaN,NaN,NaN,NaN,NaN,trial_right,redBox.png,yellowBox.png,redBox.png,al1_con.png,45,24,NaN,NaN,0.85,0.85,1,1,1,0,Stable,Stable,2.109,1.798,1.508,2.782,expert
122,1670940224077,13/12/2022 14:03:44,1670940223958,0,13/12/2022 14:03:43,109680,33,task-xjip,repeat-7g8d#1->-repeat-38fk#1,25915846,BLIND,7659497,NaN,complete,NaN,NaN,computer,Desktop or Laptop,Mac OS 10.15.7,Safari 14.1.2,1440x900,1440x820,End of Day 1,SLS,89,A,Pass,End of Day 1,Pass,NaN,NaN,NaN,Pass,NaN,Pass,NaN,schedule_A,schedule_A,25,16,5,feedback_r,Zone7,timelimit_screen,2000,NaN,NaN,,NaN,0,1,0,NaN,NaN,1,NaN,NaN,trial_right,redBox.png,yellowBox.png,redBox.png,al1_con.png,45,24,NaN,NaN,0.85,0.85,1,1,1,0,Stable,Stable,2.109,1.798,1.508,2.782,expert
123,1670940224208,13/12/2022 14:03:44,1670940224107,0,13/12/2022 14:03:44,109680,33,task-xjip,repeat-7g8d#1->-repeat-38fk#1,25915846,BLIND,7659497,NaN,complete,NaN,NaN,computer,Desktop or Laptop,Mac OS 10.15.7,Safari 14.1.2,1440x900,1440x820,End of Day 1,SLS,89,A,Pass,End of Day 1,Pass,NaN,NaN,NaN,Pass,NaN,Pass,NaN,schedule_A,schedule_A,25,16,6,end,Zone1,timelimit_screen,149,NaN,NaN,,NaN,0,1,0,NaN,NaN,1,NaN,NaN,trial_right,redBox.png,yellowBox.png,redBox.png,al1_con.png,45,24,NaN,NaN,0.85,0.85,1,1,1,0,Stable,Stable,2.109,1.798,1.508,2.782,expert
124,1670940225295,13/12/2022 14:03:45,1670940225139,0,13/12/2022 14:03:45,109680,33,task-xjip,repeat-7g8d#1->-repeat-38fk#1,25915846,BLIND,7659497,NaN,complete,NaN,NaN,computer,Desktop or Laptop,Mac OS 10.15.7,Safari 14.1.2,1440x900,1440x820,End of Day 1,SLS,89,A,Pass,End of Day 1,Pass,NaN,NaN,NaN,Pass,NaN,Pass,NaN,schedule_A,schedule_A,26,9,1,Screen 1,Zone1,continue_button,1019.00000000003,NaN,NaN,,NaN,0,1,0,NaN,NaN,NaN,NaN,NaN,trial_left,redBox.png,redBox.png,yellowBox.png,al1_con.png,46,25,NaN,NaN,0.85,0.85,1,1,1,1,Stable,Stable,2.916,1.294,1.962,2.361,expert
125,1670940226237,13/12/2022 14:03:46,1670940226125,0,13/12/2022 14:03:46,109680,33,task-xjip,repeat-7g8d#1->-repeat-38fk#1,25915846,BLIND,7659497,NaN,complete,NaN,NaN,computer,Desktop or Laptop,Mac OS 10.15.7,Safari 14.1.2,1440x900,1440x820,End of Day 1,SLS,89,A,Pass,End of Day 1,Pass,NaN,NaN,NaN,Pass,NaN,Pass,NaN,schedule_A,schedule_A,26,9,2,individual,Zone4,timelimit_screen,1001,NaN,NaN,,NaN,0,1,0,NaN,NaN,1,NaN,NaN,trial_left,redBox.png,redBox.png,yellowBox.png,al1_con.png,46,25,NaN,NaN,0.85,0.85,1,1,1,1,Stable,Stable,2.916,1.294,1.962,2.361,expert
126,1670940227004,13/12/2022 14:03:47,1670940226900,0,13/12/2022 14:03:46,109680,33,task-xjip,repeat-7g8d#1->-repeat-38fk#1,25915846,BLIND,7659497,NaN,complete,NaN,NaN,computer,Desktop or Laptop,Mac OS 10.15.7,Safari 14.1.2,1440x900,1440x820,End of Day 1,SLS,89,A,Pass,End of Day 1,Pass,NaN,NaN,NaN,Pass,NaN,Pass,NaN,schedule_A,schedule_A,26,9,3,offer,Zone2,response_button_image,765,NaN,NaN,redBox.png,1,1,0,0,NaN,NaN,NaN,NaN,NaN,trial_left,redBox.png,redBox.png,yellowBox.png,al1_con.png,46,25,NaN,NaN,0.85,0.85,1,1,1,1,Stable,Stable,2.916,1.294,1.962,2.361,expert
127,1670940229018,13/12/2022 14:03:49,1670940228891,0,13/12/2022 14:03:48,109680,33,task-xjip,repeat-7g8d#1->-repeat-38fk#1,25915846,BLIND,7659497,NaN,complete,NaN,NaN,computer,Desktop or Laptop,Mac OS 10.15.7,Safari 14.1.2,1440x900,1440x820,End of Day 1,SLS,89,A,Pass,End of Day 1,Pass,NaN,NaN,NaN,Pass,NaN,Pass,NaN,schedule_A,schedule_A,26,9,4,feedback_l,Zone7,timelimit_screen,2000,NaN,NaN,,NaN,0,1,0,NaN,NaN,1,NaN,NaN,trial_left,redBox.png,redBox.png,yellowBox.png,al1_con.png,46,25,NaN,NaN,0.85,0.85,1,1,1,1,Stable,Stable,2.916,1.294,1.962,2.361,expert
128,1670940229149,13/12/2022 14:03:49,1670940229041,0,13/12/2022 14:03:49,109680,33,task-xjip,repeat-7g8d#1->-repeat-38fk#1,25915846,BLIND,7659497,NaN,complete,NaN,NaN,computer,Desktop or Laptop,Mac OS 10.15.7,Safari 14.1.2,1440x900,1440x820,End of Day 1,SLS,89,A,Pass,End of Day 1,Pass,NaN,NaN,NaN,Pass,NaN,Pass,NaN,schedule_A,schedule_A,26,9,6,end,Zone1,timelimit_screen,150,NaN,NaN,,NaN,0,1,0,NaN,NaN,1,NaN,NaN,trial_left,redBox.png,redBox.png,yellowBox.png,al1_con.png,46,25,NaN,NaN,0.85,0.85,1,1,1,1,Stable,Stable,2.916,1.294,1.962,2.361,expert
129,1670940230112,13/12/2022 14:03:50,1670940229998,0,13/12/2022 14:03:49,109680,33,task-xjip,repeat-7g8d#1->-repeat-38fk#1,25915846,BLIND,7659497,NaN,complete,NaN,NaN,computer,Desktop or Laptop,Mac OS 10.15.7,Safari 14.1.2,1440x900,1440x820,End of Day 1,SLS,89,A,Pass,End of Day 1,Pass,NaN,NaN,NaN,Pass,NaN,Pass,NaN,schedule_A,schedule_A,27,17,1,Screen 1,Zone1,continue_button,945,NaN,NaN,,NaN,0,1,0,NaN,NaN,NaN,NaN,NaN,trial_right,redBox.png,yellowBox.png,redBox.png,al1_con.png,47,26,NaN,NaN,0.85,0.85,1,1,1,0,Stable,Stable,2.487,1.697,1.13,1.286,expert
130,1670940231103,13/12/2022 14:03:51,1670940230992,0,13/12/2022 14:03:50,109680,33,task-xjip,repeat-7g8d#1->-repeat-38fk#1,25915846,BLIND,7659497,NaN,complete,NaN,NaN,computer,Desktop or Laptop,Mac OS 10.15.7,Safari 14.1.2,1440x900,1440x820,End of Day 1,SLS,89,A,Pass,End of Day 1,Pass,NaN,NaN,NaN,Pass,NaN,Pass,NaN,schedule_A,schedule_A,27,17,2,individual,Zone4,timelimit_screen,1000,NaN,NaN,,NaN,0,1,0,NaN,NaN,1,NaN,NaN,trial_right,redBox.png,yellowBox.png,redBox.png,al1_con.png,47,26,NaN,NaN,0.85,0.85,1,1,1,0,Stable,Stable,2.487,1.697,1.13,1.286,expert
131,1670940232006,13/12/2022 14:03:52,1670940231895,0,13/12/2022 14:03:51,109680,33,task-xjip,repeat-7g8d#1->-repeat-38fk#1,25915846,BLIND,7659497,NaN,complete,NaN,NaN,computer,Desktop or Laptop,Mac OS 10.15.7,Safari 14.1.2,1440x900,1440x820,End of Day 1,SLS,89,A,Pass,End of Day 1,Pass,NaN,NaN,NaN,Pass,NaN,Pass,NaN,schedule_A,schedule_A,27,17,3,offer,Zone3,response_button_image,893,NaN,NaN,redBox.png,1,1,0,0,NaN,NaN,NaN,NaN,NaN,trial_right,redBox.png,yellowBox.png,redBox.png,al1_con.png,47,26,NaN,NaN,0.85,0.85,1,1,1,0,Stable,Stable,2.487,1.697,1.13,1.286,expert
132,1670940234029,13/12/2022 14:03:54,1670940233891,0,13/12/2022 14:03:53,109680,33,task-xjip,repeat-7g8d#1->-repeat-38fk#1,25915846,BLIND,7659497,NaN,complete,NaN,NaN,computer,Desktop or Laptop,Mac OS 10.15.7,Safari 14.1.2,1440x900,1440x820,End of Day 1,SLS,89,A,Pass,End of Day 1,Pass,NaN,NaN,NaN,Pass,NaN,Pass,NaN,schedule_A,schedule_A,27,17,5,feedback_r,Zone7,timelimit_screen,2000,NaN,NaN,,NaN,0,1,0,NaN,NaN,1,NaN,NaN,trial_right,redBox.png,yellowBox.png,redBox.png,al1_con.png,47,26,NaN,NaN,0.85,0.85,1,1,1,0,Stable,Stable,2.487,1.697,1.13,1.286,expert
133,1670940234139,13/12/2022 14:03:54,1670940234041,0,13/12/2022 14:03:54,109680,33,task-xjip,repeat-7g8d#1->-repeat-38fk#1,25915846,BLIND,7659497,NaN,complete,NaN,NaN,computer,Desktop or Laptop,Mac OS 10.15.7,Safari 14.1.2,1440x900,1440x820,End of Day 1,SLS,89,A,Pass,End of Day 1,Pass,NaN,NaN,NaN,Pass,NaN,Pass,NaN,schedule_A,schedule_A,27,17,6,end,Zone1,timelimit_screen,150,NaN,NaN,,NaN,0,1,0,NaN,NaN,1,NaN,NaN,trial_right,redBox.png,yellowBox.png,redBox.png,al1_con.png,47,26,NaN,NaN,0.85,0.85,1,1,1,0,Stable,Stable,2.487,1.697,1.13,1.286,expert
134,1670940235558,13/12/2022 14:03:55,1670940235442,0,13/12/2022 14:03:55,109680,33,task-xjip,repeat-7g8d#1->-repeat-38fk#1,25915846,BLIND,7659497,NaN,complete,NaN,NaN,computer,Desktop or Laptop,Mac OS 10.15.7,Safari 14.1.2,1440x900,1440x820,End of Day 1,SLS,89,A,Pass,End of Day 1,Pass,NaN,NaN,NaN,Pass,NaN,Pass,NaN,schedule_A,schedule_A,28,10,1,Screen 1,Zone1,continue_button,1388,NaN,NaN,,NaN,0,1,0,NaN,NaN,NaN,NaN,NaN,trial_left,redBox.png,redBox.png,yellowBox.png,al1_con.png,48,27,NaN,NaN,0.85,0.85,1,1,1,1,Stable,Stable,3.824,1.634,0.992,2.244,expert
135,1670940236551,13/12/2022 14:03:56,1670940236424,0,13/12/2022 14:03:56,109680,33,task-xjip,repeat-7g8d#1->-repeat-38fk#1,25915846,BLIND,7659497,NaN,complete,NaN,NaN,computer,Desktop or Laptop,Mac OS 10.15.7,Safari 14.1.2,1440x900,1440x820,End of Day 1,SLS,89,A,Pass,End of Day 1,Pass,NaN,NaN,NaN,Pass,NaN,Pass,NaN,schedule_A,schedule_A,28,10,2,individual,Zone4,timelimit_screen,1000,NaN,NaN,,NaN,0,1,0,NaN,NaN,1,NaN,NaN,trial_left,redBox.png,redBox.png,yellowBox.png,al1_con.png,48,27,NaN,NaN,0.85,0.85,1,1,1,1,Stable,Stable,3.824,1.634,0.992,2.244,expert
136,1670940237450,13/12/2022 14:03:57,1670940237203,0,13/12/2022 14:03:57,109680,33,task-xjip,repeat-7g8d#1->-repeat-38fk#1,25915846,BLIND,7659497,NaN,complete,NaN,NaN,computer,Desktop or Laptop,Mac OS 10.15.7,Safari 14.1.2,1440x900,1440x820,End of Day 1,SLS,89,A,Pass,End of Day 1,Pass,NaN,NaN,NaN,Pass,NaN,Pass,NaN,schedule_A,schedule_A,28,10,3,offer,Zone2,response_button_image,768,NaN,NaN,redBox.png,1,1,0,0,NaN,NaN,NaN,NaN,NaN,trial_left,redBox.png,redBox.png,yellowBox.png,al1_con.png,48,27,NaN,NaN,0.85,0.85,1,1,1,1,Stable,Stable,3.824,1.634,0.992,2.244,expert
137,1670940239335,13/12/2022 14:03:59,1670940239191,0,13/12/2022 14:03:59,109680,33,task-xjip,repeat-7g8d#1->-repeat-38fk#1,25915846,BLIND,7659497,NaN,complete,NaN,NaN,computer,Desktop or Laptop,Mac OS 10.15.7,Safari 14.1.2,1440x900,1440x820,End of Day 1,SLS,89,A,Pass,End of Day 1,Pass,NaN,NaN,NaN,Pass,NaN,Pass,NaN,schedule_A,schedule_A,28,10,4,feedback_l,Zone7,timelimit_screen,2000,NaN,NaN,,NaN,0,1,0,NaN,NaN,1,NaN,NaN,trial_left,redBox.png,redBox.png,yellowBox.png,al1_con.png,48,27,NaN,NaN,0.85,0.85,1,1,1,1,Stable,Stable,3.824,1.634,0.992,2.244,expert
138,1670940239521,13/12/2022 14:03:59,1670940239341,0,13/12/2022 14:03:59,109680,33,task-xjip,repeat-7g8d#1->-repeat-38fk#1,25915846,BLIND,7659497,NaN,complete,NaN,NaN,computer,Desktop or Laptop,Mac OS 10.15.7,Safari 14.1.2,1440x900,1440x820,End of Day 1,SLS,89,A,Pass,End of Day 1,Pass,NaN,NaN,NaN,Pass,NaN,Pass,NaN,schedule_A,schedule_A,28,10,6,end,Zone1,timelimit_screen,150,NaN,NaN,,NaN,0,1,0,NaN,NaN,1,NaN,NaN,trial_left,redBox.png,redBox.png,yellowBox.png,al1_con.png,48,27,NaN,NaN,0.85,0.85,1,1,1,1,Stable,Stable,3.824,1.634,0.992,2.244,expert
139,1670940240760,13/12/2022 14:04:00,1670940240566,0,13/12/2022 14:04:00,109680,33,task-xjip,repeat-7g8d#1->-repeat-38fk#1,25915846,BLIND,7659497,NaN,complete,NaN,NaN,computer,Desktop or Laptop,Mac OS 10.15.7,Safari 14.1.2,1440x900,1440x820,End of Day 1,SLS,89,A,Pass,End of Day 1,Pass,NaN,NaN,NaN,Pass,NaN,Pass,NaN,schedule_A,schedule_A,29,11,1,Screen 1,Zone1,continue_button,1210,NaN,NaN,,NaN,0,1,0,NaN,NaN,NaN,NaN,NaN,trial_left,redBox.png,redBox.png,yellowBox.png,al1_con.png,49,28,NaN,NaN,0.85,0.85,1,1,1,1,Stable,Stable,2.84,1.937,1.723,2.815,expert
140,1670940241665,13/12/2022 14:04:01,1670940241558,0,13/12/2022 14:04:01,109680,33,task-xjip,repeat-7g8d#1->-repeat-38fk#1,25915846,BLIND,7659497,NaN,complete,NaN,NaN,computer,Desktop or Laptop,Mac OS 10.15.7,Safari 14.1.2,1440x900,1440x820,End of Day 1,SLS,89,A,Pass,End of Day 1,Pass,NaN,NaN,NaN,Pass,NaN,Pass,NaN,schedule_A,schedule_A,29,11,2,individual,Zone4,timelimit_screen,1000,NaN,NaN,,NaN,0,1,0,NaN,NaN,1,NaN,NaN,trial_left,redBox.png,redBox.png,yellowBox.png,al1_con.png,49,28,NaN,NaN,0.85,0.85,1,1,1,1,Stable,Stable,2.84,1.937,1.723,2.815,expert
141,1670940242420,13/12/2022 14:04:02,1670940242302,0,13/12/2022 14:04:02,109680,33,task-xjip,repeat-7g8d#1->-repeat-38fk#1,25915846,BLIND,7659497,NaN,complete,NaN,NaN,computer,Desktop or Laptop,Mac OS 10.15.7,Safari 14.1.2,1440x900,1440x820,End of Day 1,SLS,89,A,Pass,End of Day 1,Pass,NaN,NaN,NaN,Pass,NaN,Pass,NaN,schedule_A,schedule_A,29,11,3,offer,Zone2,response_button_image,735,NaN,NaN,redBox.png,1,1,0,0,NaN,NaN,NaN,NaN,NaN,trial_left,redBox.png,redBox.png,yellowBox.png,al1_con.png,49,28,NaN,NaN,0.85,0.85,1,1,1,1,Stable,Stable,2.84,1.937,1.723,2.815,expert
142,1670940244402,13/12/2022 14:04:04,1670940244291,0,13/12/2022 14:04:04,109680,33,task-xjip,repeat-7g8d#1->-repeat-38fk#1,25915846,BLIND,7659497,NaN,complete,NaN,NaN,computer,Desktop or Laptop,Mac OS 10.15.7,Safari 14.1.2,1440x900,1440x820,End of Day 1,SLS,89,A,Pass,End of Day 1,Pass,NaN,NaN,NaN,Pass,NaN,Pass,NaN,schedule_A,schedule_A,29,11,4,feedback_l,Zone7,timelimit_screen,2001,NaN,NaN,,NaN,0,1,0,NaN,NaN,1,NaN,NaN,trial_left,redBox.png,redBox.png,yellowBox.png,al1_con.png,49,28,NaN,NaN,0.85,0.85,1,1,1,1,Stable,Stable,2.84,1.937,1.723,2.815,expert
143,1670940244559,13/12/2022 14:04:04,1670940244441,0,13/12/2022 14:04:04,109680,33,task-xjip,repeat-7g8d#1->-repeat-38fk#1,25915846,BLIND,7659497,NaN,complete,NaN,NaN,computer,Desktop or Laptop,Mac OS 10.15.7,Safari 14.1.2,1440x900,1440x820,End of Day 1,SLS,89,A,Pass,End of Day 1,Pass,NaN,NaN,NaN,Pass,NaN,Pass,NaN,schedule_A,schedule_A,29,11,6,end,Zone1,timelimit_screen,150,NaN,NaN,,NaN,0,1,0,NaN,NaN,1,NaN,NaN,trial_left,redBox.png,redBox.png,yellowBox.png,al1_con.png,49,28,NaN,NaN,0.85,0.85,1,1,1,1,Stable,Stable,2.84,1.937,1.723,2.815,expert
144,1670940245626,13/12/2022 14:04:05,1670940245506,0,13/12/2022 14:04:05,109680,33,task-xjip,repeat-7g8d#1->-repeat-38fk#1,25915846,BLIND,7659497,NaN,complete,NaN,NaN,computer,Desktop or Laptop,Mac OS 10.15.7,Safari 14.1.2,1440x900,1440x820,End of Day 1,SLS,89,A,Pass,End of Day 1,Pass,NaN,NaN,NaN,Pass,NaN,Pass,NaN,schedule_A,schedule_A,30,18,1,Screen 1,Zone1,continue_button,1053,NaN,NaN,,NaN,0,1,0,NaN,NaN,NaN,NaN,NaN,trial_right,redBox.png,yellowBox.png,redBox.png,al1_con.png,50,29,NaN,NaN,0.85,0.85,1,1,1,0,Stable,Stable,2.941,1.71,0.664,1.336,expert
145,1670940246598,13/12/2022 14:04:06,1670940246492,0,13/12/2022 14:04:06,109680,33,task-xjip,repeat-7g8d#1->-repeat-38fk#1,25915846,BLIND,7659497,NaN,complete,NaN,NaN,computer,Desktop or Laptop,Mac OS 10.15.7,Safari 14.1.2,1440x900,1440x820,End of Day 1,SLS,89,A,Pass,End of Day 1,Pass,NaN,NaN,NaN,Pass,NaN,Pass,NaN,schedule_A,schedule_A,30,18,2,individual,Zone4,timelimit_screen,1000,NaN,NaN,,NaN,0,1,0,NaN,NaN,1,NaN,NaN,trial_right,redBox.png,yellowBox.png,redBox.png,al1_con.png,50,29,NaN,NaN,0.85,0.85,1,1,1,0,Stable,Stable,2.941,1.71,0.664,1.336,expert
146,1670940247480,13/12/2022 14:04:07,1670940247363,0,13/12/2022 14:04:07,109680,33,task-xjip,repeat-7g8d#1->-repeat-38fk#1,25915846,BLIND,7659497,NaN,complete,NaN,NaN,computer,Desktop or Laptop,Mac OS 10.15.7,Safari 14.1.2,1440x900,1440x820,End of Day 1,SLS,89,A,Pass,End of Day 1,Pass,NaN,NaN,NaN,Pass,NaN,Pass,NaN,schedule_A,schedule_A,30,18,3,offer,Zone3,response_button_image,859.999999999971,NaN,NaN,redBox.png,1,1,0,0,NaN,NaN,NaN,NaN,NaN,trial_right,redBox.png,yellowBox.png,redBox.png,al1_con.png,50,29,NaN,NaN,0.85,0.85,1,1,1,0,Stable,Stable,2.941,1.71,0.664,1.336,expert
147,1670940249521,13/12/2022 14:04:09,1670940249358,0,13/12/2022 14:04:09,109680,33,task-xjip,repeat-7g8d#1->-repeat-38fk#1,25915846,BLIND,7659497,NaN,complete,NaN,NaN,computer,Desktop or Laptop,Mac OS 10.15.7,Safari 14.1.2,1440x900,1440x820,End of Day 1,SLS,89,A,Pass,End of Day 1,Pass,NaN,NaN,NaN,Pass,NaN,Pass,NaN,schedule_A,schedule_A,30,18,5,feedback_r,Zone7,timelimit_screen,2000,NaN,NaN,,NaN,0,1,0,NaN,NaN,1,NaN,NaN,trial_right,redBox.png,yellowBox.png,redBox.png,al1_con.png,50,29,NaN,NaN,0.85,0.85,1,1,1,0,Stable,Stable,2.941,1.71,0.664,1.336,expert
148,1670940249627,13/12/2022 14:04:09,1670940249508,0,13/12/2022 14:04:09,109680,33,task-xjip,repeat-7g8d#1->-repeat-38fk#1,25915846,BLIND,7659497,NaN,complete,NaN,NaN,computer,Desktop or Laptop,Mac OS 10.15.7,Safari 14.1.2,1440x900,1440x820,End of Day 1,SLS,89,A,Pass,End of Day 1,Pass,NaN,NaN,NaN,Pass,NaN,Pass,NaN,schedule_A,schedule_A,30,18,6,end,Zone1,timelimit_screen,150,NaN,NaN,,NaN,0,1,0,NaN,NaN,1,NaN,NaN,trial_right,redBox.png,yellowBox.png,redBox.png,al1_con.png,50,29,NaN,NaN,0.85,0.85,1,1,1,0,Stable,Stable,2.941,1.71,0.664,1.336,expert
149,1670940250757,13/12/2022 14:04:10,1670940250541,0,13/12/2022 14:04:10,109680,33,task-xjip,repeat-7g8d#1->-repeat-38fk#1,25915846,BLIND,7659497,NaN,complete,NaN,NaN,computer,Desktop or Laptop,Mac OS 10.15.7,Safari 14.1.2,1440x900,1440x820,End of Day 1,SLS,89,A,Pass,End of Day 1,Pass,NaN,NaN,NaN,Pass,NaN,Pass,NaN,schedule_A,schedule_A,31,12,1,Screen 1,Zone1,continue_button,1017,NaN,NaN,,NaN,0,1,0,NaN,NaN,NaN,NaN,NaN,trial_left,redBox.png,redBox.png,yellowBox.png,al1_con.png,61,30,NaN,NaN,0.85,0.85,1,1,1,1,Stable,Stable,2.79,1.735,0.601,2.345,expert
150,1670940251646,13/12/2022 14:04:11,1670940251524,0,13/12/2022 14:04:11,109680,33,task-xjip,repeat-7g8d#1->-repeat-38fk#1,25915846,BLIND,7659497,NaN,complete,NaN,NaN,computer,Desktop or Laptop,Mac OS 10.15.7,Safari 14.1.2,1440x900,1440x820,End of Day 1,SLS,89,A,Pass,End of Day 1,Pass,NaN,NaN,NaN,Pass,NaN,Pass,NaN,schedule_A,schedule_A,31,12,2,individual,Zone4,timelimit_screen,1000,NaN,NaN,,NaN,0,1,0,NaN,NaN,1,NaN,NaN,trial_left,redBox.png,redBox.png,yellowBox.png,al1_con.png,61,30,NaN,NaN,0.85,0.85,1,1,1,1,Stable,Stable,2.79,1.735,0.601,2.345,expert
151,1670940252952,13/12/2022 14:04:12,1670940252838,0,13/12/2022 14:04:12,109680,33,task-xjip,repeat-7g8d#1->-repeat-38fk#1,25915846,BLIND,7659497,NaN,complete,NaN,NaN,computer,Desktop or Laptop,Mac OS 10.15.7,Safari 14.1.2,1440x900,1440x820,End of Day 1,SLS,89,A,Pass,End of Day 1,Pass,NaN,NaN,NaN,Pass,NaN,Pass,NaN,schedule_A,schedule_A,31,12,3,offer,Zone2,response_button_image,1303,NaN,NaN,redBox.png,1,1,0,0,NaN,NaN,NaN,NaN,NaN,trial_left,redBox.png,redBox.png,yellowBox.png,al1_con.png,61,30,NaN,NaN,0.85,0.85,1,1,1,1,Stable,Stable,2.79,1.735,0.601,2.345,expert
152,1670940254975,13/12/2022 14:04:14,1670940254824,0,13/12/2022 14:04:14,109680,33,task-xjip,repeat-7g8d#1->-repeat-38fk#1,25915846,BLIND,7659497,NaN,complete,NaN,NaN,computer,Desktop or Laptop,Mac OS 10.15.7,Safari 14.1.2,1440x900,1440x820,End of Day 1,SLS,89,A,Pass,End of Day 1,Pass,NaN,NaN,NaN,Pass,NaN,Pass,NaN,schedule_A,schedule_A,31,12,4,feedback_l,Zone7,timelimit_screen,2000,NaN,NaN,,NaN,0,1,0,NaN,NaN,1,NaN,NaN,trial_left,redBox.png,redBox.png,yellowBox.png,al1_con.png,61,30,NaN,NaN,0.85,0.85,1,1,1,1,Stable,Stable,2.79,1.735,0.601,2.345,expert
153,1670940255089,13/12/2022 14:04:15,1670940254974,0,13/12/2022 14:04:14,109680,33,task-xjip,repeat-7g8d#1->-repeat-38fk#1,25915846,BLIND,7659497,NaN,complete,NaN,NaN,computer,Desktop or Laptop,Mac OS 10.15.7,Safari 14.1.2,1440x900,1440x820,End of Day 1,SLS,89,A,Pass,End of Day 1,Pass,NaN,NaN,NaN,Pass,NaN,Pass,NaN,schedule_A,schedule_A,31,12,6,end,Zone1,timelimit_screen,150,NaN,NaN,,NaN,0,1,0,NaN,NaN,1,NaN,NaN,trial_left,redBox.png,redBox.png,yellowBox.png,al1_con.png,61,30,NaN,NaN,0.85,0.85,1,1,1,1,Stable,Stable,2.79,1.735,0.601,2.345,expert
154,1670940256314,13/12/2022 14:04:16,1670940256202,0,13/12/2022 14:04:16,109680,33,task-xjip,repeat-7g8d#1->-repeat-38fk#1,25915846,BLIND,7659497,NaN,complete,NaN,NaN,computer,Desktop or Laptop,Mac OS 10.15.7,Safari 14.1.2,1440x900,1440x820,End of Day 1,SLS,89,A,Pass,End of Day 1,Pass,NaN,NaN,NaN,Pass,NaN,Pass,NaN,schedule_A,schedule_A,32,19,1,Screen 1,Zone1,continue_button,1213,NaN,NaN,,NaN,0,1,0,NaN,NaN,NaN,NaN,NaN,trial_right,redBox.png,redBox.png,yellowBox.png,al1_con.png,62,31,NaN,NaN,0.85,0.15,1,0,0,1,Stable,Volatile,2.538,1.672,1.143,1.555,expert
155,1670940257306,13/12/2022 14:04:17,1670940257192,0,13/12/2022 14:04:17,109680,33,task-xjip,repeat-7g8d#1->-repeat-38fk#1,25915846,BLIND,7659497,NaN,complete,NaN,NaN,computer,Desktop or Laptop,Mac OS 10.15.7,Safari 14.1.2,1440x900,1440x820,End of Day 1,SLS,89,A,Pass,End of Day 1,Pass,NaN,NaN,NaN,Pass,NaN,Pass,NaN,schedule_A,schedule_A,32,19,2,individual,Zone4,timelimit_screen,1000,NaN,NaN,,NaN,0,1,0,NaN,NaN,1,NaN,NaN,trial_right,redBox.png,redBox.png,yellowBox.png,al1_con.png,62,31,NaN,NaN,0.85,0.15,1,0,0,1,Stable,Volatile,2.538,1.672,1.143,1.555,expert
156,1670940258592,13/12/2022 14:04:18,1670940258466,0,13/12/2022 14:04:18,109680,33,task-xjip,repeat-7g8d#1->-repeat-38fk#1,25915846,BLIND,7659497,NaN,complete,NaN,NaN,computer,Desktop or Laptop,Mac OS 10.15.7,Safari 14.1.2,1440x900,1440x820,End of Day 1,SLS,89,A,Pass,End of Day 1,Pass,NaN,NaN,NaN,Pass,NaN,Pass,NaN,schedule_A,schedule_A,32,19,3,offer,Zone3,response_button_image,1269,NaN,NaN,yellowBox.png,1,0,1,0,NaN,NaN,NaN,NaN,NaN,trial_right,redBox.png,redBox.png,yellowBox.png,al1_con.png,62,31,NaN,NaN,0.85,0.15,1,0,0,1,Stable,Volatile,2.538,1.672,1.143,1.555,expert
157,1670940260608,13/12/2022 14:04:20,1670940260458,0,13/12/2022 14:04:20,109680,33,task-xjip,repeat-7g8d#1->-repeat-38fk#1,25915846,BLIND,7659497,NaN,complete,NaN,NaN,computer,Desktop or Laptop,Mac OS 10.15.7,Safari 14.1.2,1440x900,1440x820,End of Day 1,SLS,89,A,Pass,End of Day 1,Pass,NaN,NaN,NaN,Pass,NaN,Pass,NaN,schedule_A,schedule_A,32,19,5,feedback_r,Zone7,timelimit_screen,2000,NaN,NaN,,NaN,0,1,0,NaN,NaN,1,NaN,NaN,trial_right,redBox.png,redBox.png,yellowBox.png,al1_con.png,62,31,NaN,NaN,0.85,0.15,1,0,0,1,Stable,Volatile,2.538,1.672,1.143,1.555,expert
158,1670940260757,13/12/2022 14:04:20,1670940260608,0,13/12/2022 14:04:20,109680,33,task-xjip,repeat-7g8d#1->-repeat-38fk#1,25915846,BLIND,7659497,NaN,complete,NaN,NaN,computer,Desktop or Laptop,Mac OS 10.15.7,Safari 14.1.2,1440x900,1440x820,End of Day 1,SLS,89,A,Pass,End of Day 1,Pass,NaN,NaN,NaN,Pass,NaN,Pass,NaN,schedule_A,schedule_A,32,19,6,end,Zone1,timelimit_screen,151,NaN,NaN,,NaN,0,1,0,NaN,NaN,1,NaN,NaN,trial_right,redBox.png,redBox.png,yellowBox.png,al1_con.png,62,31,NaN,NaN,0.85,0.15,1,0,0,1,Stable,Volatile,2.538,1.672,1.143,1.555,expert
159,1670940261741,13/12/2022 14:04:21,1670940261621,0,13/12/2022 14:04:21,109680,33,task-xjip,repeat-7g8d#1->-repeat-38fk#1,25915846,BLIND,7659497,NaN,complete,NaN,NaN,computer,Desktop or Laptop,Mac OS 10.15.7,Safari 14.1.2,1440x900,1440x820,End of Day 1,SLS,89,A,Pass,End of Day 1,Pass,NaN,NaN,NaN,Pass,NaN,Pass,NaN,schedule_A,schedule_A,33,13,1,Screen 1,Zone1,continue_button,1001.00000000003,NaN,NaN,,NaN,0,1,0,NaN,NaN,NaN,NaN,NaN,trial_left,redBox.png,yellowBox.png,redBox.png,al1_con.png,63,32,NaN,NaN,0.85,0.15,1,0,0,0,Stable,Volatile,2.739,1.13,0.815,1.387,expert
160,1670940262859,13/12/2022 14:04:22,1670940262608,0,13/12/2022 14:04:22,109680,33,task-xjip,repeat-7g8d#1->-repeat-38fk#1,25915846,BLIND,7659497,NaN,complete,NaN,NaN,computer,Desktop or Laptop,Mac OS 10.15.7,Safari 14.1.2,1440x900,1440x820,End of Day 1,SLS,89,A,Pass,End of Day 1,Pass,NaN,NaN,NaN,Pass,NaN,Pass,NaN,schedule_A,schedule_A,33,13,2,individual,Zone4,timelimit_screen,1001,NaN,NaN,,NaN,0,1,0,NaN,NaN,1,NaN,NaN,trial_left,redBox.png,yellowBox.png,redBox.png,al1_con.png,63,32,NaN,NaN,0.85,0.15,1,0,0,0,Stable,Volatile,2.739,1.13,0.815,1.387,expert
161,1670940263283,13/12/2022 14:04:23,1670940263157,0,13/12/2022 14:04:23,109680,33,task-xjip,repeat-7g8d#1->-repeat-38fk#1,25915846,BLIND,7659497,NaN,complete,NaN,NaN,computer,Desktop or Laptop,Mac OS 10.15.7,Safari 14.1.2,1440x900,1440x820,End of Day 1,SLS,89,A,Pass,End of Day 1,Pass,NaN,NaN,NaN,Pass,NaN,Pass,NaN,schedule_A,schedule_A,33,13,3,offer,Zone2,response_button_image,544,NaN,NaN,yellowBox.png,1,0,1,0,NaN,NaN,NaN,NaN,NaN,trial_left,redBox.png,yellowBox.png,redBox.png,al1_con.png,63,32,NaN,NaN,0.85,0.15,1,0,0,0,Stable,Volatile,2.739,1.13,0.815,1.387,expert
162,1670940265255,13/12/2022 14:04:25,1670940265141,0,13/12/2022 14:04:25,109680,33,task-xjip,repeat-7g8d#1->-repeat-38fk#1,25915846,BLIND,7659497,NaN,complete,NaN,NaN,computer,Desktop or Laptop,Mac OS 10.15.7,Safari 14.1.2,1440x900,1440x820,End of Day 1,SLS,89,A,Pass,End of Day 1,Pass,NaN,NaN,NaN,Pass,NaN,Pass,NaN,schedule_A,schedule_A,33,13,4,feedback_l,Zone7,timelimit_screen,2000,NaN,NaN,,NaN,0,1,0,NaN,NaN,1,NaN,NaN,trial_left,redBox.png,yellowBox.png,redBox.png,al1_con.png,63,32,NaN,NaN,0.85,0.15,1,0,0,0,Stable,Volatile,2.739,1.13,0.815,1.387,expert
163,1670940265419,13/12/2022 14:04:25,1670940265291,0,13/12/2022 14:04:25,109680,33,task-xjip,repeat-7g8d#1->-repeat-38fk#1,25915846,BLIND,7659497,NaN,complete,NaN,NaN,computer,Desktop or Laptop,Mac OS 10.15.7,Safari 14.1.2,1440x900,1440x820,End of Day 1,SLS,89,A,Pass,End of Day 1,Pass,NaN,NaN,NaN,Pass,NaN,Pass,NaN,schedule_A,schedule_A,33,13,6,end,Zone1,timelimit_screen,150,NaN,NaN,,NaN,0,1,0,NaN,NaN,1,NaN,NaN,trial_left,redBox.png,yellowBox.png,redBox.png,al1_con.png,63,32,NaN,NaN,0.85,0.15,1,0,0,0,Stable,Volatile,2.739,1.13,0.815,1.387,expert
164,1670940266332,13/12/2022 14:04:26,1670940266216,0,13/12/2022 14:04:26,109680,33,task-xjip,repeat-7g8d#1->-repeat-38fk#1,25915846,BLIND,7659497,NaN,complete,NaN,NaN,computer,Desktop or Laptop,Mac OS 10.15.7,Safari 14.1.2,1440x900,1440x820,End of Day 1,SLS,89,A,Pass,End of Day 1,Pass,NaN,NaN,NaN,Pass,NaN,Pass,NaN,schedule_A,schedule_A,34,20,1,Screen 1,Zone1,continue_button,912,NaN,NaN,,NaN,0,1,0,NaN,NaN,NaN,NaN,NaN,trial_right,redBox.png,redBox.png,yellowBox.png,al1_con.png,64,33,NaN,NaN,0.85,0.15,1,0,0,1,Stable,Volatile,3.672,0.828,0.513,2.059,expert
165,1670940267386,13/12/2022 14:04:27,1670940267208,0,13/12/2022 14:04:27,109680,33,task-xjip,repeat-7g8d#1->-repeat-38fk#1,25915846,BLIND,7659497,NaN,complete,NaN,NaN,computer,Desktop or Laptop,Mac OS 10.15.7,Safari 14.1.2,1440x900,1440x820,End of Day 1,SLS,89,A,Pass,End of Day 1,Pass,NaN,NaN,NaN,Pass,NaN,Pass,NaN,schedule_A,schedule_A,34,20,2,individual,Zone4,timelimit_screen,999,NaN,NaN,,NaN,0,1,0,NaN,NaN,1,NaN,NaN,trial_right,redBox.png,redBox.png,yellowBox.png,al1_con.png,64,33,NaN,NaN,0.85,0.15,1,0,0,1,Stable,Volatile,3.672,0.828,0.513,2.059,expert
166,1670940268134,13/12/2022 14:04:28,1670940267961,0,13/12/2022 14:04:27,109680,33,task-xjip,repeat-7g8d#1->-repeat-38fk#1,25915846,BLIND,7659497,NaN,complete,NaN,NaN,computer,Desktop or Laptop,Mac OS 10.15.7,Safari 14.1.2,1440x900,1440x820,End of Day 1,SLS,89,A,Pass,End of Day 1,Pass,NaN,NaN,NaN,Pass,NaN,Pass,NaN,schedule_A,schedule_A,34,20,3,offer,Zone2,response_button_image,744,NaN,NaN,redBox.png,1,1,0,0,NaN,NaN,NaN,NaN,NaN,trial_right,redBox.png,redBox.png,yellowBox.png,al1_con.png,64,33,NaN,NaN,0.85,0.15,1,0,0,1,Stable,Volatile,3.672,0.828,0.513,2.059,expert
167,1670940270141,13/12/2022 14:04:30,1670940269958,0,13/12/2022 14:04:29,109680,33,task-xjip,repeat-7g8d#1->-repeat-38fk#1,25915846,BLIND,7659497,NaN,complete,NaN,NaN,computer,Desktop or Laptop,Mac OS 10.15.7,Safari 14.1.2,1440x900,1440x820,End of Day 1,SLS,89,A,Pass,End of Day 1,Pass,NaN,NaN,NaN,Pass,NaN,Pass,NaN,schedule_A,schedule_A,34,20,4,feedback_l,Zone7,timelimit_screen,2000,NaN,NaN,,NaN,0,1,0,NaN,NaN,1,NaN,NaN,trial_right,redBox.png,redBox.png,yellowBox.png,al1_con.png,64,33,NaN,NaN,0.85,0.15,1,0,0,1,Stable,Volatile,3.672,0.828,0.513,2.059,expert
168,1670940270222,13/12/2022 14:04:30,1670940270107,0,13/12/2022 14:04:30,109680,33,task-xjip,repeat-7g8d#1->-repeat-38fk#1,25915846,BLIND,7659497,NaN,complete,NaN,NaN,computer,Desktop or Laptop,Mac OS 10.15.7,Safari 14.1.2,1440x900,1440x820,End of Day 1,SLS,89,A,Pass,End of Day 1,Pass,NaN,NaN,NaN,Pass,NaN,Pass,NaN,schedule_A,schedule_A,34,20,6,end,Zone1,timelimit_screen,150,NaN,NaN,,NaN,0,1,0,NaN,NaN,1,NaN,NaN,trial_right,redBox.png,redBox.png,yellowBox.png,al1_con.png,64,33,NaN,NaN,0.85,0.15,1,0,0,1,Stable,Volatile,3.672,0.828,0.513,2.059,expert
169,1670940271191,13/12/2022 14:04:31,1670940271068,0,13/12/2022 14:04:31,109680,33,task-xjip,repeat-7g8d#1->-repeat-38fk#1,25915846,BLIND,7659497,NaN,complete,NaN,NaN,computer,Desktop or Laptop,Mac OS 10.15.7,Safari 14.1.2,1440x900,1440x820,End of Day 1,SLS,89,A,Pass,End of Day 1,Pass,NaN,NaN,NaN,Pass,NaN,Pass,NaN,schedule_A,schedule_A,35,14,1,Screen 1,Zone1,continue_button,945.000000000029,NaN,NaN,,NaN,0,1,0,NaN,NaN,NaN,NaN,NaN,trial_left,redBox.png,redBox.png,yellowBox.png,al1_con.png,65,34,NaN,NaN,0.85,0.15,1,1,1,1,Stable,Volatile,2.261,0.866,1.811,2.849,expert
170,1670940272194,13/12/2022 14:04:32,1670940272058,0,13/12/2022 14:04:32,109680,33,task-xjip,repeat-7g8d#1->-repeat-38fk#1,25915846,BLIND,7659497,NaN,complete,NaN,NaN,computer,Desktop or Laptop,Mac OS 10.15.7,Safari 14.1.2,1440x900,1440x820,End of Day 1,SLS,89,A,Pass,End of Day 1,Pass,NaN,NaN,NaN,Pass,NaN,Pass,NaN,schedule_A,schedule_A,35,14,2,individual,Zone4,timelimit_screen,1000,NaN,NaN,,NaN,0,1,0,NaN,NaN,1,NaN,NaN,trial_left,redBox.png,redBox.png,yellowBox.png,al1_con.png,65,34,NaN,NaN,0.85,0.15,1,1,1,1,Stable,Volatile,2.261,0.866,1.811,2.849,expert
171,1670940273278,13/12/2022 14:04:33,1670940272917,0,13/12/2022 14:04:32,109680,33,task-xjip,repeat-7g8d#1->-repeat-38fk#1,25915846,BLIND,7659497,NaN,complete,NaN,NaN,computer,Desktop or Laptop,Mac OS 10.15.7,Safari 14.1.2,1440x900,1440x820,End of Day 1,SLS,89,A,Pass,End of Day 1,Pass,NaN,NaN,NaN,Pass,NaN,Pass,NaN,schedule_A,schedule_A,35,14,3,offer,bluebox,response_button_image,848.999999999971,NaN,NaN,yellowBox.png,1,0,1,0,NaN,NaN,NaN,NaN,NaN,trial_left,redBox.png,redBox.png,yellowBox.png,al1_con.png,65,34,NaN,NaN,0.85,0.15,1,1,1,1,Stable,Volatile,2.261,0.866,1.811,2.849,expert
172,1670940275039,13/12/2022 14:04:35,1670940274908,0,13/12/2022 14:04:34,109680,33,task-xjip,repeat-7g8d#1->-repeat-38fk#1,25915846,BLIND,7659497,NaN,complete,NaN,NaN,computer,Desktop or Laptop,Mac OS 10.15.7,Safari 14.1.2,1440x900,1440x820,End of Day 1,SLS,89,A,Pass,End of Day 1,Pass,NaN,NaN,NaN,Pass,NaN,Pass,NaN,schedule_A,schedule_A,35,14,5,feedback_r,Zone7,timelimit_screen,2001,NaN,NaN,,NaN,0,1,0,NaN,NaN,1,NaN,NaN,trial_left,redBox.png,redBox.png,yellowBox.png,al1_con.png,65,34,NaN,NaN,0.85,0.15,1,1,1,1,Stable,Volatile,2.261,0.866,1.811,2.849,expert
173,1670940275171,13/12/2022 14:04:35,1670940275057,0,13/12/2022 14:04:35,109680,33,task-xjip,repeat-7g8d#1->-repeat-38fk#1,25915846,BLIND,7659497,NaN,complete,NaN,NaN,computer,Desktop or Laptop,Mac OS 10.15.7,Safari 14.1.2,1440x900,1440x820,End of Day 1,SLS,89,A,Pass,End of Day 1,Pass,NaN,NaN,NaN,Pass,NaN,Pass,NaN,schedule_A,schedule_A,35,14,6,end,Zone1,timelimit_screen,149,NaN,NaN,,NaN,0,1,0,NaN,NaN,1,NaN,NaN,trial_left,redBox.png,redBox.png,yellowBox.png,al1_con.png,65,34,NaN,NaN,0.85,0.15,1,1,1,1,Stable,Volatile,2.261,0.866,1.811,2.849,expert
174,1670940276290,13/12/2022 14:04:36,1670940276168,0,13/12/2022 14:04:36,109680,33,task-xjip,repeat-7g8d#1->-repeat-38fk#1,25915846,BLIND,7659497,NaN,complete,NaN,NaN,computer,Desktop or Laptop,Mac OS 10.15.7,Safari 14.1.2,1440x900,1440x820,End of Day 1,SLS,89,A,Pass,End of Day 1,Pass,NaN,NaN,NaN,Pass,NaN,Pass,NaN,schedule_A,schedule_A,36,21,1,Screen 1,Zone1,continue_button,1096,NaN,NaN,,NaN,0,1,0,NaN,NaN,NaN,NaN,NaN,trial_right,redBox.png,redBox.png,yellowBox.png,al1_con.png,66,35,NaN,NaN,0.85,0.15,1,0,0,1,Stable,Volatile,1.807,1.029,1.634,2.092,expert
175,1670940277266,13/12/2022 14:04:37,1670940277158,0,13/12/2022 14:04:37,109680,33,task-xjip,repeat-7g8d#1->-repeat-38fk#1,25915846,BLIND,7659497,NaN,complete,NaN,NaN,computer,Desktop or Laptop,Mac OS 10.15.7,Safari 14.1.2,1440x900,1440x820,End of Day 1,SLS,89,A,Pass,End of Day 1,Pass,NaN,NaN,NaN,Pass,NaN,Pass,NaN,schedule_A,schedule_A,36,21,2,individual,Zone4,timelimit_screen,1000,NaN,NaN,,NaN,0,1,0,NaN,NaN,1,NaN,NaN,trial_right,redBox.png,redBox.png,yellowBox.png,al1_con.png,66,35,NaN,NaN,0.85,0.15,1,0,0,1,Stable,Volatile,1.807,1.029,1.634,2.092,expert
176,1670940277911,13/12/2022 14:04:37,1670940277760,0,13/12/2022 14:04:37,109680,33,task-xjip,repeat-7g8d#1->-repeat-38fk#1,25915846,BLIND,7659497,NaN,complete,NaN,NaN,computer,Desktop or Laptop,Mac OS 10.15.7,Safari 14.1.2,1440x900,1440x820,End of Day 1,SLS,89,A,Pass,End of Day 1,Pass,NaN,NaN,NaN,Pass,NaN,Pass,NaN,schedule_A,schedule_A,36,21,3,offer,Zone2,response_button_image,593,NaN,NaN,redBox.png,1,1,0,0,NaN,NaN,NaN,NaN,NaN,trial_right,redBox.png,redBox.png,yellowBox.png,al1_con.png,66,35,NaN,NaN,0.85,0.15,1,0,0,1,Stable,Volatile,1.807,1.029,1.634,2.092,expert
