EventIndex,UTCTimestamp,UTCDate,LocalTimestamp,LocalTimezone,LocalDate,ExperimentID,ExperimentVersion,TreeNodeKey,RepeatKey,ScheduleID,ParticipantPublicID,ParticipantPrivateID,ParticipantStartingGroup,ParticipantStatus,ParticipantCompletionCode,ParticipantExternalSessionID,ParticipantDeviceType,ParticipantDevice,ParticipantOS,ParticipantBrowser,ParticipantMonitorSize,ParticipantViewportSize,Checkpoint,TaskName,TaskVersion,randomiser_6z9f,branch_kxy7,checkpoint_tqwf,branch_rtog,branch_7dgx,checkpoint_mqen,branch_yx2c,branch_3n8o,branch_f1s6,branch_x6l7,branch_21hs,Spreadsheet,SpreadsheetName,SpreadsheetRow,TrialNumber,ScreenNumber,ScreenName,ZoneName,ZoneType,ReactionTime,ReactionOnset,ResponseType,Response,Attempt,Correct,Incorrect,Dishonest,XCoordinate,YCoordinate,TimedOut,randomise_blocks,randomise_trials,display,ANSWER,left_button,right_button,advice,orderno,trialno,ShowProgressBar,image,prob_blue_corr,prob_group_corr,corr_ans,group_corr,group_choice,blue_pos,indiv_vol,soc_vol,ITI_1,ITI_2,ITI_3,ITI_4,condition
1,1671188695115,16/12/2022 11:04:55,1671188689837,0,16/12/2022 11:04:49,109680,37,task-qrxs,repeat-7g8d#1->-repeat-38fk#1->-repeat-qjz7#1->-repeat-5t6i#1,25988997,BLIND,7671893,NaN,complete,NaN,NaN,computer,Desktop or Laptop,Windows 10,Edge 108.0.1462.46,1280x720,1280x720,End of Day 1,SLS,90,A,Pass,End of Day 1,Pass,NaN,NaN,NaN,Pass,NaN,Pass,NaN,schedule_B,,NaN,NaN,NaN,,,,NaN,NaN,NaN,,NaN,0,1,0,NaN,NaN,NaN,NaN,NaN,,,,,,NaN,NaN,NaN,NaN,NaN,NaN,NaN,NaN,NaN,NaN,,,NaN,NaN,NaN,NaN,
2,1671188696787,16/12/2022 11:04:56,1671188691548,0,16/12/2022 11:04:51,109680,37,task-qrxs,repeat-7g8d#1->-repeat-38fk#1->-repeat-qjz7#1->-repeat-5t6i#1,25988997,BLIND,7671893,NaN,complete,NaN,NaN,computer,Desktop or Laptop,Windows 10,Edge 108.0.1462.46,1280x720,1280x720,End of Day 1,SLS,90,A,Pass,End of Day 1,Pass,NaN,NaN,NaN,Pass,NaN,Pass,NaN,schedule_B,schedule_B,1,1,1,Screen 1,Zone1,continue_button,1500.69999999995,NaN,NaN,,NaN,0,1,0,NaN,NaN,NaN,NaN,NaN,getReadyb,,,,,1,NaN,NaN,NaN,NaN,NaN,NaN,NaN,NaN,NaN,,,NaN,NaN,NaN,NaN,
3,1671188698532,16/12/2022 11:04:58,1671188693279,0,16/12/2022 11:04:53,109680,37,task-qrxs,repeat-7g8d#1->-repeat-38fk#1->-repeat-qjz7#1->-repeat-5t6i#1,25988997,BLIND,7671893,NaN,complete,NaN,NaN,computer,Desktop or Laptop,Windows 10,Edge 108.0.1462.46,1280x720,1280x720,End of Day 1,SLS,90,A,Pass,End of Day 1,Pass,NaN,NaN,NaN,Pass,NaN,Pass,NaN,schedule_B,schedule_B,1,1,2,Screen 2,Zone1,continue_button,1723,NaN,NaN,,NaN,0,1,0,NaN,NaN,NaN,NaN,NaN,getReadyb,,,,,1,NaN,NaN,NaN,NaN,NaN,NaN,NaN,NaN,NaN,,,NaN,NaN,NaN,NaN,
4,1671188703784,16/12/2022 11:05:03,1671188698535,0,16/12/2022 11:04:58,109680,37,task-qrxs,repeat-7g8d#1->-repeat-38fk#1->-repeat-qjz7#1->-repeat-5t6i#1,25988997,BLIND,7671893,NaN,complete,NaN,NaN,computer,Desktop or Laptop,Windows 10,Edge 108.0.1462.46,1280x720,1280x720,End of Day 1,SLS,90,A,Pass,End of Day 1,Pass,NaN,NaN,NaN,Pass,NaN,Pass,NaN,schedule_B,schedule_B,2,1,1,Screen 1,Zone1,continue_button,5231.19999999995,NaN,NaN,,NaN,0,1,0,NaN,NaN,NaN,NaN,NaN,trial_right,greenBox.png,greenBox.png,blueBox.png,al2_uncon.png,2,1,NaN,NaN,0.85,0.15,0,0,1,0,Stable,Stable,3.471,0.525,1.66,2.529,inexpert
5,1671188704770,16/12/2022 11:05:04,1671188699535,0,16/12/2022 11:04:59,109680,37,task-qrxs,repeat-7g8d#1->-repeat-38fk#1->-repeat-qjz7#1->-repeat-5t6i#1,25988997,BLIND,7671893,NaN,complete,NaN,NaN,computer,Desktop or Laptop,Windows 10,Edge 108.0.1462.46,1280x720,1280x720,End of Day 1,SLS,90,A,Pass,End of Day 1,Pass,NaN,NaN,NaN,Pass,NaN,Pass,NaN,schedule_B,schedule_B,2,1,2,individual,Zone4,timelimit_screen,998.831,NaN,NaN,,NaN,0,1,0,NaN,NaN,1,NaN,NaN,trial_right,greenBox.png,greenBox.png,blueBox.png,al2_uncon.png,2,1,NaN,NaN,0.85,0.15,0,0,1,0,Stable,Stable,3.471,0.525,1.66,2.529,inexpert
6,1671188705647,16/12/2022 11:05:05,1671188700413,0,16/12/2022 11:05:00,109680,37,task-qrxs,repeat-7g8d#1->-repeat-38fk#1->-repeat-qjz7#1->-repeat-5t6i#1,25988997,BLIND,7671893,NaN,complete,NaN,NaN,computer,Desktop or Laptop,Windows 10,Edge 108.0.1462.46,1280x720,1280x720,End of Day 1,SLS,90,A,Pass,End of Day 1,Pass,NaN,NaN,NaN,Pass,NaN,Pass,NaN,schedule_B,schedule_B,2,1,3,offer,Zone3,response_button_image,867.199999999953,NaN,NaN,blueBox.png,1,0,1,0,NaN,NaN,NaN,NaN,NaN,trial_right,greenBox.png,greenBox.png,blueBox.png,al2_uncon.png,2,1,NaN,NaN,0.85,0.15,0,0,1,0,Stable,Stable,3.471,0.525,1.66,2.529,inexpert
7,1671188707643,16/12/2022 11:05:07,1671188702399,0,16/12/2022 11:05:02,109680,37,task-qrxs,repeat-7g8d#1->-repeat-38fk#1->-repeat-qjz7#1->-repeat-5t6i#1,25988997,BLIND,7671893,NaN,complete,NaN,NaN,computer,Desktop or Laptop,Windows 10,Edge 108.0.1462.46,1280x720,1280x720,End of Day 1,SLS,90,A,Pass,End of Day 1,Pass,NaN,NaN,NaN,Pass,NaN,Pass,NaN,schedule_B,schedule_B,2,1,5,feedback_r,Zone7,timelimit_screen,1999.758,NaN,NaN,,NaN,0,1,0,NaN,NaN,1,NaN,NaN,trial_right,greenBox.png,greenBox.png,blueBox.png,al2_uncon.png,2,1,NaN,NaN,0.85,0.15,0,0,1,0,Stable,Stable,3.471,0.525,1.66,2.529,inexpert
8,1671188707781,16/12/2022 11:05:07,1671188702550,0,16/12/2022 11:05:02,109680,37,task-qrxs,repeat-7g8d#1->-repeat-38fk#1->-repeat-qjz7#1->-repeat-5t6i#1,25988997,BLIND,7671893,NaN,complete,NaN,NaN,computer,Desktop or Laptop,Windows 10,Edge 108.0.1462.46,1280x720,1280x720,End of Day 1,SLS,90,A,Pass,End of Day 1,Pass,NaN,NaN,NaN,Pass,NaN,Pass,NaN,schedule_B,schedule_B,2,1,6,end,Zone1,timelimit_screen,150.078,NaN,NaN,,NaN,0,1,0,NaN,NaN,1,NaN,NaN,trial_right,greenBox.png,greenBox.png,blueBox.png,al2_uncon.png,2,1,NaN,NaN,0.85,0.15,0,0,1,0,Stable,Stable,3.471,0.525,1.66,2.529,inexpert
9,1671188709310,16/12/2022 11:05:09,1671188704071,0,16/12/2022 11:05:04,109680,37,task-qrxs,repeat-7g8d#1->-repeat-38fk#1->-repeat-qjz7#1->-repeat-5t6i#1,25988997,BLIND,7671893,NaN,complete,NaN,NaN,computer,Desktop or Laptop,Windows 10,Edge 108.0.1462.46,1280x720,1280x720,End of Day 1,SLS,90,A,Pass,End of Day 1,Pass,NaN,NaN,NaN,Pass,NaN,Pass,NaN,schedule_B,schedule_B,3,1,1,Screen 1,Zone1,continue_button,1503.10000000009,NaN,NaN,,NaN,0,1,0,NaN,NaN,NaN,NaN,NaN,trial_left,blueBox.png,greenBox.png,blueBox.png,al2_uncon.png,3,2,NaN,NaN,0.85,0.15,1,0,0,0,Stable,Stable,1.782,1.168,1.168,2.462,inexpert
10,1671188710299,16/12/2022 11:05:10,1671188705066,0,16/12/2022 11:05:05,109680,37,task-qrxs,repeat-7g8d#1->-repeat-38fk#1->-repeat-qjz7#1->-repeat-5t6i#1,25988997,BLIND,7671893,NaN,complete,NaN,NaN,computer,Desktop or Laptop,Windows 10,Edge 108.0.1462.46,1280x720,1280x720,End of Day 1,SLS,90,A,Pass,End of Day 1,Pass,NaN,NaN,NaN,Pass,NaN,Pass,NaN,schedule_B,schedule_B,3,1,2,individual,Zone4,timelimit_screen,999.861999999999,NaN,NaN,,NaN,0,1,0,NaN,NaN,1,NaN,NaN,trial_left,blueBox.png,greenBox.png,blueBox.png,al2_uncon.png,3,2,NaN,NaN,0.85,0.15,1,0,0,0,Stable,Stable,1.782,1.168,1.168,2.462,inexpert
11,1671188711573,16/12/2022 11:05:11,1671188706337,0,16/12/2022 11:05:06,109680,37,task-qrxs,repeat-7g8d#1->-repeat-38fk#1->-repeat-qjz7#1->-repeat-5t6i#1,25988997,BLIND,7671893,NaN,complete,NaN,NaN,computer,Desktop or Laptop,Windows 10,Edge 108.0.1462.46,1280x720,1280x720,End of Day 1,SLS,90,A,Pass,End of Day 1,Pass,NaN,NaN,NaN,Pass,NaN,Pass,NaN,schedule_B,schedule_B,3,1,3,offer,Zone2,response_button_image,1261.70000000019,NaN,NaN,greenBox.png,1,0,1,0,NaN,NaN,NaN,NaN,NaN,trial_left,blueBox.png,greenBox.png,blueBox.png,al2_uncon.png,3,2,NaN,NaN,0.85,0.15,1,0,0,0,Stable,Stable,1.782,1.168,1.168,2.462,inexpert
12,1671188713564,16/12/2022 11:05:13,1671188708331,0,16/12/2022 11:05:08,109680,37,task-qrxs,repeat-7g8d#1->-repeat-38fk#1->-repeat-qjz7#1->-repeat-5t6i#1,25988997,BLIND,7671893,NaN,complete,NaN,NaN,computer,Desktop or Laptop,Windows 10,Edge 108.0.1462.46,1280x720,1280x720,End of Day 1,SLS,90,A,Pass,End of Day 1,Pass,NaN,NaN,NaN,Pass,NaN,Pass,NaN,schedule_B,schedule_B,3,1,4,feedback_l,Zone7,timelimit_screen,1999.556,NaN,NaN,,NaN,0,1,0,NaN,NaN,1,NaN,NaN,trial_left,blueBox.png,greenBox.png,blueBox.png,al2_uncon.png,3,2,NaN,NaN,0.85,0.15,1,0,0,0,Stable,Stable,1.782,1.168,1.168,2.462,inexpert
13,1671188713724,16/12/2022 11:05:13,1671188708483,0,16/12/2022 11:05:08,109680,37,task-qrxs,repeat-7g8d#1->-repeat-38fk#1->-repeat-qjz7#1->-repeat-5t6i#1,25988997,BLIND,7671893,NaN,complete,NaN,NaN,computer,Desktop or Laptop,Windows 10,Edge 108.0.1462.46,1280x720,1280x720,End of Day 1,SLS,90,A,Pass,End of Day 1,Pass,NaN,NaN,NaN,Pass,NaN,Pass,NaN,schedule_B,schedule_B,3,1,6,end,Zone1,timelimit_screen,150.217000000001,NaN,NaN,,NaN,0,1,0,NaN,NaN,1,NaN,NaN,trial_left,blueBox.png,greenBox.png,blueBox.png,al2_uncon.png,3,2,NaN,NaN,0.85,0.15,1,0,0,0,Stable,Stable,1.782,1.168,1.168,2.462,inexpert
14,1671188714480,16/12/2022 11:05:14,1671188709244,0,16/12/2022 11:05:09,109680,37,task-qrxs,repeat-7g8d#1->-repeat-38fk#1->-repeat-qjz7#1->-repeat-5t6i#1,25988997,BLIND,7671893,NaN,complete,NaN,NaN,computer,Desktop or Laptop,Windows 10,Edge 108.0.1462.46,1280x720,1280x720,End of Day 1,SLS,90,A,Pass,End of Day 1,Pass,NaN,NaN,NaN,Pass,NaN,Pass,NaN,schedule_B,schedule_B,4,2,1,Screen 1,Zone1,continue_button,742.40000000014,NaN,NaN,,NaN,0,1,0,NaN,NaN,NaN,NaN,NaN,trial_left,blueBox.png,greenBox.png,blueBox.png,al2_uncon.png,4,3,NaN,NaN,0.85,0.15,1,0,0,0,Stable,Stable,1.983,1.181,0.538,1.588,inexpert
15,1671188715466,16/12/2022 11:05:15,1671188710232,0,16/12/2022 11:05:10,109680,37,task-qrxs,repeat-7g8d#1->-repeat-38fk#1->-repeat-qjz7#1->-repeat-5t6i#1,25988997,BLIND,7671893,NaN,complete,NaN,NaN,computer,Desktop or Laptop,Windows 10,Edge 108.0.1462.46,1280x720,1280x720,End of Day 1,SLS,90,A,Pass,End of Day 1,Pass,NaN,NaN,NaN,Pass,NaN,Pass,NaN,schedule_B,schedule_B,4,2,2,individual,Zone4,timelimit_screen,1000.207,NaN,NaN,,NaN,0,1,0,NaN,NaN,1,NaN,NaN,trial_left,blueBox.png,greenBox.png,blueBox.png,al2_uncon.png,4,3,NaN,NaN,0.85,0.15,1,0,0,0,Stable,Stable,1.983,1.181,0.538,1.588,inexpert
16,1671188716625,16/12/2022 11:05:16,1671188711391,0,16/12/2022 11:05:11,109680,37,task-qrxs,repeat-7g8d#1->-repeat-38fk#1->-repeat-qjz7#1->-repeat-5t6i#1,25988997,BLIND,7671893,NaN,complete,NaN,NaN,computer,Desktop or Laptop,Windows 10,Edge 108.0.1462.46,1280x720,1280x720,End of Day 1,SLS,90,A,Pass,End of Day 1,Pass,NaN,NaN,NaN,Pass,NaN,Pass,NaN,schedule_B,schedule_B,4,2,3,offer,bluebox,response_button_image,1148.5,NaN,NaN,blueBox.png,1,1,0,0,NaN,NaN,NaN,NaN,NaN,trial_left,blueBox.png,greenBox.png,blueBox.png,al2_uncon.png,4,3,NaN,NaN,0.85,0.15,1,0,0,0,Stable,Stable,1.983,1.181,0.538,1.588,inexpert
17,1671188718614,16/12/2022 11:05:18,1671188713382,0,16/12/2022 11:05:13,109680,37,task-qrxs,repeat-7g8d#1->-repeat-38fk#1->-repeat-qjz7#1->-repeat-5t6i#1,25988997,BLIND,7671893,NaN,complete,NaN,NaN,computer,Desktop or Laptop,Windows 10,Edge 108.0.1462.46,1280x720,1280x720,End of Day 1,SLS,90,A,Pass,End of Day 1,Pass,NaN,NaN,NaN,Pass,NaN,Pass,NaN,schedule_B,schedule_B,4,2,5,feedback_r,Zone7,timelimit_screen,2000.174,NaN,NaN,,NaN,0,1,0,NaN,NaN,1,NaN,NaN,trial_left,blueBox.png,greenBox.png,blueBox.png,al2_uncon.png,4,3,NaN,NaN,0.85,0.15,1,0,0,0,Stable,Stable,1.983,1.181,0.538,1.588,inexpert
18,1671188718764,16/12/2022 11:05:18,1671188713531,0,16/12/2022 11:05:13,109680,37,task-qrxs,repeat-7g8d#1->-repeat-38fk#1->-repeat-qjz7#1->-repeat-5t6i#1,25988997,BLIND,7671893,NaN,complete,NaN,NaN,computer,Desktop or Laptop,Windows 10,Edge 108.0.1462.46,1280x720,1280x720,End of Day 1,SLS,90,A,Pass,End of Day 1,Pass,NaN,NaN,NaN,Pass,NaN,Pass,NaN,schedule_B,schedule_B,4,2,6,end,Zone1,timelimit_screen,149.151999999998,NaN,NaN,,NaN,0,1,0,NaN,NaN,1,NaN,NaN,trial_left,blueBox.png,greenBox.png,blueBox.png,al2_uncon.png,4,3,NaN,NaN,0.85,0.15,1,0,0,0,Stable,Stable,1.983,1.181,0.538,1.588,inexpert
19,1671188719611,16/12/2022 11:05:19,1671188714375,0,16/12/2022 11:05:14,109680,37,task-qrxs,repeat-7g8d#1->-repeat-38fk#1->-repeat-qjz7#1->-repeat-5t6i#1,25988997,BLIND,7671893,NaN,complete,NaN,NaN,computer,Desktop or Laptop,Windows 10,Edge 108.0.1462.46,1280x720,1280x720,End of Day 1,SLS,90,A,Pass,End of Day 1,Pass,NaN,NaN,NaN,Pass,NaN,Pass,NaN,schedule_B,schedule_B,5,2,1,Screen 1,Zone1,continue_button,825.90000000014,NaN,NaN,,NaN,0,1,0,NaN,NaN,NaN,NaN,NaN,trial_right,greenBox.png,greenBox.png,blueBox.png,al2_uncon.png,5,4,NaN,NaN,0.85,0.15,0,0,1,0,Stable,Stable,1.529,0.891,1.004,1,inexpert
20,1671188720596,16/12/2022 11:05:20,1671188715365,0,16/12/2022 11:05:15,109680,37,task-qrxs,repeat-7g8d#1->-repeat-38fk#1->-repeat-qjz7#1->-repeat-5t6i#1,25988997,BLIND,7671893,NaN,complete,NaN,NaN,computer,Desktop or Laptop,Windows 10,Edge 108.0.1462.46,1280x720,1280x720,End of Day 1,SLS,90,A,Pass,End of Day 1,Pass,NaN,NaN,NaN,Pass,NaN,Pass,NaN,schedule_B,schedule_B,5,2,2,individual,Zone4,timelimit_screen,1000.096,NaN,NaN,,NaN,0,1,0,NaN,NaN,1,NaN,NaN,trial_right,greenBox.png,greenBox.png,blueBox.png,al2_uncon.png,5,4,NaN,NaN,0.85,0.15,0,0,1,0,Stable,Stable,1.529,0.891,1.004,1,inexpert
21,1671188722236,16/12/2022 11:05:22,1671188717002,0,16/12/2022 11:05:17,109680,37,task-qrxs,repeat-7g8d#1->-repeat-38fk#1->-repeat-qjz7#1->-repeat-5t6i#1,25988997,BLIND,7671893,NaN,complete,NaN,NaN,computer,Desktop or Laptop,Windows 10,Edge 108.0.1462.46,1280x720,1280x720,End of Day 1,SLS,90,A,Pass,End of Day 1,Pass,NaN,NaN,NaN,Pass,NaN,Pass,NaN,schedule_B,schedule_B,5,2,3,offer,Zone2,response_button_image,1626.39999999991,NaN,NaN,greenBox.png,1,1,0,0,NaN,NaN,NaN,NaN,NaN,trial_right,greenBox.png,greenBox.png,blueBox.png,al2_uncon.png,5,4,NaN,NaN,0.85,0.15,0,0,1,0,Stable,Stable,1.529,0.891,1.004,1,inexpert
22,1671188724233,16/12/2022 11:05:24,1671188718997,0,16/12/2022 11:05:18,109680,37,task-qrxs,repeat-7g8d#1->-repeat-38fk#1->-repeat-qjz7#1->-repeat-5t6i#1,25988997,BLIND,7671893,NaN,complete,NaN,NaN,computer,Desktop or Laptop,Windows 10,Edge 108.0.1462.46,1280x720,1280x720,End of Day 1,SLS,90,A,Pass,End of Day 1,Pass,NaN,NaN,NaN,Pass,NaN,Pass,NaN,schedule_B,schedule_B,5,2,4,feedback_l,Zone7,timelimit_screen,1999.365,NaN,NaN,,NaN,0,1,0,NaN,NaN,1,NaN,NaN,trial_right,greenBox.png,greenBox.png,blueBox.png,al2_uncon.png,5,4,NaN,NaN,0.85,0.15,0,0,1,0,Stable,Stable,1.529,0.891,1.004,1,inexpert
23,1671188724386,16/12/2022 11:05:24,1671188719149,0,16/12/2022 11:05:19,109680,37,task-qrxs,repeat-7g8d#1->-repeat-38fk#1->-repeat-qjz7#1->-repeat-5t6i#1,25988997,BLIND,7671893,NaN,complete,NaN,NaN,computer,Desktop or Laptop,Windows 10,Edge 108.0.1462.46,1280x720,1280x720,End of Day 1,SLS,90,A,Pass,End of Day 1,Pass,NaN,NaN,NaN,Pass,NaN,Pass,NaN,schedule_B,schedule_B,5,2,6,end,Zone1,timelimit_screen,152.048999999999,NaN,NaN,,NaN,0,1,0,NaN,NaN,1,NaN,NaN,trial_right,greenBox.png,greenBox.png,blueBox.png,al2_uncon.png,5,4,NaN,NaN,0.85,0.15,0,0,1,0,Stable,Stable,1.529,0.891,1.004,1,inexpert
24,1671188725318,16/12/2022 11:05:25,1671188720083,0,16/12/2022 11:05:20,109680,37,task-qrxs,repeat-7g8d#1->-repeat-38fk#1->-repeat-qjz7#1->-repeat-5t6i#1,25988997,BLIND,7671893,NaN,complete,NaN,NaN,computer,Desktop or Laptop,Windows 10,Edge 108.0.1462.46,1280x720,1280x720,End of Day 1,SLS,90,A,Pass,End of Day 1,Pass,NaN,NaN,NaN,Pass,NaN,Pass,NaN,schedule_B,schedule_B,6,3,1,Screen 1,Zone1,continue_button,922.700000000186,NaN,NaN,,NaN,0,1,0,NaN,NaN,NaN,NaN,NaN,trial_left,blueBox.png,greenBox.png,blueBox.png,al2_uncon.png,6,5,NaN,NaN,0.85,0.15,1,0,0,0,Stable,Stable,1.832,1.118,0.752,1.79,inexpert
25,1671188726313,16/12/2022 11:05:26,1671188721083,0,16/12/2022 11:05:21,109680,37,task-qrxs,repeat-7g8d#1->-repeat-38fk#1->-repeat-qjz7#1->-repeat-5t6i#1,25988997,BLIND,7671893,NaN,complete,NaN,NaN,computer,Desktop or Laptop,Windows 10,Edge 108.0.1462.46,1280x720,1280x720,End of Day 1,SLS,90,A,Pass,End of Day 1,Pass,NaN,NaN,NaN,Pass,NaN,Pass,NaN,schedule_B,schedule_B,6,3,2,individual,Zone4,timelimit_screen,1002.625,NaN,NaN,,NaN,0,1,0,NaN,NaN,1,NaN,NaN,trial_left,blueBox.png,greenBox.png,blueBox.png,al2_uncon.png,6,5,NaN,NaN,0.85,0.15,1,0,0,0,Stable,Stable,1.832,1.118,0.752,1.79,inexpert
26,1671188727228,16/12/2022 11:05:27,1671188721990,0,16/12/2022 11:05:21,109680,37,task-qrxs,repeat-7g8d#1->-repeat-38fk#1->-repeat-qjz7#1->-repeat-5t6i#1,25988997,BLIND,7671893,NaN,complete,NaN,NaN,computer,Desktop or Laptop,Windows 10,Edge 108.0.1462.46,1280x720,1280x720,End of Day 1,SLS,90,A,Pass,End of Day 1,Pass,NaN,NaN,NaN,Pass,NaN,Pass,NaN,schedule_B,schedule_B,6,3,3,offer,bluebox,response_button_image,901.100000000093,NaN,NaN,blueBox.png,1,1,0,0,NaN,NaN,NaN,NaN,NaN,trial_left,blueBox.png,greenBox.png,blueBox.png,al2_uncon.png,6,5,NaN,NaN,0.85,0.15,1,0,0,0,Stable,Stable,1.832,1.118,0.752,1.79,inexpert
27,1671188729221,16/12/2022 11:05:29,1671188723979,0,16/12/2022 11:05:23,109680,37,task-qrxs,repeat-7g8d#1->-repeat-38fk#1->-repeat-qjz7#1->-repeat-5t6i#1,25988997,BLIND,7671893,NaN,complete,NaN,NaN,computer,Desktop or Laptop,Windows 10,Edge 108.0.1462.46,1280x720,1280x720,End of Day 1,SLS,90,A,Pass,End of Day 1,Pass,NaN,NaN,NaN,Pass,NaN,Pass,NaN,schedule_B,schedule_B,6,3,5,feedback_r,Zone7,timelimit_screen,1999.242,NaN,NaN,,NaN,0,1,0,NaN,NaN,1,NaN,NaN,trial_left,blueBox.png,greenBox.png,blueBox.png,al2_uncon.png,6,5,NaN,NaN,0.85,0.15,1,0,0,0,Stable,Stable,1.832,1.118,0.752,1.79,inexpert
28,1671188729361,16/12/2022 11:05:29,1671188724129,0,16/12/2022 11:05:24,109680,37,task-qrxs,repeat-7g8d#1->-repeat-38fk#1->-repeat-qjz7#1->-repeat-5t6i#1,25988997,BLIND,7671893,NaN,complete,NaN,NaN,computer,Desktop or Laptop,Windows 10,Edge 108.0.1462.46,1280x720,1280x720,End of Day 1,SLS,90,A,Pass,End of Day 1,Pass,NaN,NaN,NaN,Pass,NaN,Pass,NaN,schedule_B,schedule_B,6,3,6,end,Zone1,timelimit_screen,150.005000000005,NaN,NaN,,NaN,0,1,0,NaN,NaN,1,NaN,NaN,trial_left,blueBox.png,greenBox.png,blueBox.png,al2_uncon.png,6,5,NaN,NaN,0.85,0.15,1,0,0,0,Stable,Stable,1.832,1.118,0.752,1.79,inexpert
29,1671188730440,16/12/2022 11:05:30,1671188725204,0,16/12/2022 11:05:25,109680,37,task-qrxs,repeat-7g8d#1->-repeat-38fk#1->-repeat-qjz7#1->-repeat-5t6i#1,25988997,BLIND,7671893,NaN,complete,NaN,NaN,computer,Desktop or Laptop,Windows 10,Edge 108.0.1462.46,1280x720,1280x720,End of Day 1,SLS,90,A,Pass,End of Day 1,Pass,NaN,NaN,NaN,Pass,NaN,Pass,NaN,schedule_B,schedule_B,7,3,1,Screen 1,Zone1,continue_button,1065.60000000009,NaN,NaN,,NaN,0,1,0,NaN,NaN,NaN,NaN,NaN,trial_right,greenBox.png,greenBox.png,blueBox.png,al2_uncon.png,7,6,NaN,NaN,0.15,0.15,0,0,1,0,Stable,Stable,3.294,0.815,1.282,2.664,inexpert
30,1671188731428,16/12/2022 11:05:31,1671188726196,0,16/12/2022 11:05:26,109680,37,task-qrxs,repeat-7g8d#1->-repeat-38fk#1->-repeat-qjz7#1->-repeat-5t6i#1,25988997,BLIND,7671893,NaN,complete,NaN,NaN,computer,Desktop or Laptop,Windows 10,Edge 108.0.1462.46,1280x720,1280x720,End of Day 1,SLS,90,A,Pass,End of Day 1,Pass,NaN,NaN,NaN,Pass,NaN,Pass,NaN,schedule_B,schedule_B,7,3,2,individual,Zone4,timelimit_screen,1000.01,NaN,NaN,,NaN,0,1,0,NaN,NaN,1,NaN,NaN,trial_right,greenBox.png,greenBox.png,blueBox.png,al2_uncon.png,7,6,NaN,NaN,0.15,0.15,0,0,1,0,Stable,Stable,3.294,0.815,1.282,2.664,inexpert
31,1671188732328,16/12/2022 11:05:32,1671188727092,0,16/12/2022 11:05:27,109680,37,task-qrxs,repeat-7g8d#1->-repeat-38fk#1->-repeat-qjz7#1->-repeat-5t6i#1,25988997,BLIND,7671893,NaN,complete,NaN,NaN,computer,Desktop or Laptop,Windows 10,Edge 108.0.1462.46,1280x720,1280x720,End of Day 1,SLS,90,A,Pass,End of Day 1,Pass,NaN,NaN,NaN,Pass,NaN,Pass,NaN,schedule_B,schedule_B,7,3,3,offer,Zone2,response_button_image,882.59999999986,NaN,NaN,greenBox.png,1,1,0,0,NaN,NaN,NaN,NaN,NaN,trial_right,greenBox.png,greenBox.png,blueBox.png,al2_uncon.png,7,6,NaN,NaN,0.15,0.15,0,0,1,0,Stable,Stable,3.294,0.815,1.282,2.664,inexpert
32,1671188734316,16/12/2022 11:05:34,1671188729082,0,16/12/2022 11:05:29,109680,37,task-qrxs,repeat-7g8d#1->-repeat-38fk#1->-repeat-qjz7#1->-repeat-5t6i#1,25988997,BLIND,7671893,NaN,complete,NaN,NaN,computer,Desktop or Laptop,Windows 10,Edge 108.0.1462.46,1280x720,1280x720,End of Day 1,SLS,90,A,Pass,End of Day 1,Pass,NaN,NaN,NaN,Pass,NaN,Pass,NaN,schedule_B,schedule_B,7,3,4,feedback_l,Zone7,timelimit_screen,2001.491,NaN,NaN,,NaN,0,1,0,NaN,NaN,1,NaN,NaN,trial_right,greenBox.png,greenBox.png,blueBox.png,al2_uncon.png,7,6,NaN,NaN,0.15,0.15,0,0,1,0,Stable,Stable,3.294,0.815,1.282,2.664,inexpert
33,1671188734462,16/12/2022 11:05:34,1671188729230,0,16/12/2022 11:05:29,109680,37,task-qrxs,repeat-7g8d#1->-repeat-38fk#1->-repeat-qjz7#1->-repeat-5t6i#1,25988997,BLIND,7671893,NaN,complete,NaN,NaN,computer,Desktop or Laptop,Windows 10,Edge 108.0.1462.46,1280x720,1280x720,End of Day 1,SLS,90,A,Pass,End of Day 1,Pass,NaN,NaN,NaN,Pass,NaN,Pass,NaN,schedule_B,schedule_B,7,3,6,end,Zone1,timelimit_screen,148.181000000004,NaN,NaN,,NaN,0,1,0,NaN,NaN,1,NaN,NaN,trial_right,greenBox.png,greenBox.png,blueBox.png,al2_uncon.png,7,6,NaN,NaN,0.15,0.15,0,0,1,0,Stable,Stable,3.294,0.815,1.282,2.664,inexpert
34,1671188735428,16/12/2022 11:05:35,1671188730189,0,16/12/2022 11:05:30,109680,37,task-qrxs,repeat-7g8d#1->-repeat-38fk#1->-repeat-qjz7#1->-repeat-5t6i#1,25988997,BLIND,7671893,NaN,complete,NaN,NaN,computer,Desktop or Laptop,Windows 10,Edge 108.0.1462.46,1280x720,1280x720,End of Day 1,SLS,90,A,Pass,End of Day 1,Pass,NaN,NaN,NaN,Pass,NaN,Pass,NaN,schedule_B,schedule_B,8,4,1,Screen 1,Zone1,continue_button,946.800000000047,NaN,NaN,,NaN,0,1,0,NaN,NaN,NaN,NaN,NaN,trial_left,greenBox.png,blueBox.png,greenBox.png,al2_uncon.png,8,7,NaN,NaN,0.15,0.15,0,0,1,1,Stable,Stable,3.269,1.37,1.786,2.328,inexpert
35,1671188736411,16/12/2022 11:05:36,1671188731179,0,16/12/2022 11:05:31,109680,37,task-qrxs,repeat-7g8d#1->-repeat-38fk#1->-repeat-qjz7#1->-repeat-5t6i#1,25988997,BLIND,7671893,NaN,complete,NaN,NaN,computer,Desktop or Laptop,Windows 10,Edge 108.0.1462.46,1280x720,1280x720,End of Day 1,SLS,90,A,Pass,End of Day 1,Pass,NaN,NaN,NaN,Pass,NaN,Pass,NaN,schedule_B,schedule_B,8,4,2,individual,Zone4,timelimit_screen,1000.497,NaN,NaN,,NaN,0,1,0,NaN,NaN,1,NaN,NaN,trial_left,greenBox.png,blueBox.png,greenBox.png,al2_uncon.png,8,7,NaN,NaN,0.15,0.15,0,0,1,1,Stable,Stable,3.269,1.37,1.786,2.328,inexpert
36,1671188737295,16/12/2022 11:05:37,1671188732064,0,16/12/2022 11:05:32,109680,37,task-qrxs,repeat-7g8d#1->-repeat-38fk#1->-repeat-qjz7#1->-repeat-5t6i#1,25988997,BLIND,7671893,NaN,complete,NaN,NaN,computer,Desktop or Laptop,Windows 10,Edge 108.0.1462.46,1280x720,1280x720,End of Day 1,SLS,90,A,Pass,End of Day 1,Pass,NaN,NaN,NaN,Pass,NaN,Pass,NaN,schedule_B,schedule_B,8,4,3,offer,bluebox,response_button_image,874.699999999953,NaN,NaN,greenBox.png,1,1,0,0,NaN,NaN,NaN,NaN,NaN,trial_left,greenBox.png,blueBox.png,greenBox.png,al2_uncon.png,8,7,NaN,NaN,0.15,0.15,0,0,1,1,Stable,Stable,3.269,1.37,1.786,2.328,inexpert
37,1671188739294,16/12/2022 11:05:39,1671188734062,0,16/12/2022 11:05:34,109680,37,task-qrxs,repeat-7g8d#1->-repeat-38fk#1->-repeat-qjz7#1->-repeat-5t6i#1,25988997,BLIND,7671893,NaN,complete,NaN,NaN,computer,Desktop or Laptop,Windows 10,Edge 108.0.1462.46,1280x720,1280x720,End of Day 1,SLS,90,A,Pass,End of Day 1,Pass,NaN,NaN,NaN,Pass,NaN,Pass,NaN,schedule_B,schedule_B,8,4,5,feedback_r,Zone7,timelimit_screen,2000.06299999999,NaN,NaN,,NaN,0,1,0,NaN,NaN,1,NaN,NaN,trial_left,greenBox.png,blueBox.png,greenBox.png,al2_uncon.png,8,7,NaN,NaN,0.15,0.15,0,0,1,1,Stable,Stable,3.269,1.37,1.786,2.328,inexpert
38,1671188739452,16/12/2022 11:05:39,1671188734213,0,16/12/2022 11:05:34,109680,37,task-qrxs,repeat-7g8d#1->-repeat-38fk#1->-repeat-qjz7#1->-repeat-5t6i#1,25988997,BLIND,7671893,NaN,complete,NaN,NaN,computer,Desktop or Laptop,Windows 10,Edge 108.0.1462.46,1280x720,1280x720,End of Day 1,SLS,90,A,Pass,End of Day 1,Pass,NaN,NaN,NaN,Pass,NaN,Pass,NaN,schedule_B,schedule_B,8,4,6,end,Zone1,timelimit_screen,149.536,NaN,NaN,,NaN,0,1,0,NaN,NaN,1,NaN,NaN,trial_left,greenBox.png,blueBox.png,greenBox.png,al2_uncon.png,8,7,NaN,NaN,0.15,0.15,0,0,1,1,Stable,Stable,3.269,1.37,1.786,2.328,inexpert
39,1671188740403,16/12/2022 11:05:40,1671188735155,0,16/12/2022 11:05:35,109680,37,task-qrxs,repeat-7g8d#1->-repeat-38fk#1->-repeat-qjz7#1->-repeat-5t6i#1,25988997,BLIND,7671893,NaN,complete,NaN,NaN,computer,Desktop or Laptop,Windows 10,Edge 108.0.1462.46,1280x720,1280x720,End of Day 1,SLS,90,A,Pass,End of Day 1,Pass,NaN,NaN,NaN,Pass,NaN,Pass,NaN,schedule_B,schedule_B,9,4,1,Screen 1,Zone1,continue_button,929.100000000093,NaN,NaN,,NaN,0,1,0,NaN,NaN,NaN,NaN,NaN,trial_right,blueBox.png,blueBox.png,greenBox.png,al2_uncon.png,9,8,NaN,NaN,0.15,0.15,1,0,0,1,Stable,Stable,3.975,0.576,1.256,1.807,inexpert
40,1671188741383,16/12/2022 11:05:41,1671188736145,0,16/12/2022 11:05:36,109680,37,task-qrxs,repeat-7g8d#1->-repeat-38fk#1->-repeat-qjz7#1->-repeat-5t6i#1,25988997,BLIND,7671893,NaN,complete,NaN,NaN,computer,Desktop or Laptop,Windows 10,Edge 108.0.1462.46,1280x720,1280x720,End of Day 1,SLS,90,A,Pass,End of Day 1,Pass,NaN,NaN,NaN,Pass,NaN,Pass,NaN,schedule_B,schedule_B,9,4,2,individual,Zone4,timelimit_screen,999.584000000003,NaN,NaN,,NaN,0,1,0,NaN,NaN,1,NaN,NaN,trial_right,blueBox.png,blueBox.png,greenBox.png,al2_uncon.png,9,8,NaN,NaN,0.15,0.15,1,0,0,1,Stable,Stable,3.975,0.576,1.256,1.807,inexpert
41,1671188742228,16/12/2022 11:05:42,1671188736988,0,16/12/2022 11:05:36,109680,37,task-qrxs,repeat-7g8d#1->-repeat-38fk#1->-repeat-qjz7#1->-repeat-5t6i#1,25988997,BLIND,7671893,NaN,complete,NaN,NaN,computer,Desktop or Laptop,Windows 10,Edge 108.0.1462.46,1280x720,1280x720,End of Day 1,SLS,90,A,Pass,End of Day 1,Pass,NaN,NaN,NaN,Pass,NaN,Pass,NaN,schedule_B,schedule_B,9,4,3,offer,Zone2,response_button_image,831.799999999814,NaN,NaN,blueBox.png,1,1,0,0,NaN,NaN,NaN,NaN,NaN,trial_right,blueBox.png,blueBox.png,greenBox.png,al2_uncon.png,9,8,NaN,NaN,0.15,0.15,1,0,0,1,Stable,Stable,3.975,0.576,1.256,1.807,inexpert
42,1671188744212,16/12/2022 11:05:44,1671188738979,0,16/12/2022 11:05:38,109680,37,task-qrxs,repeat-7g8d#1->-repeat-38fk#1->-repeat-qjz7#1->-repeat-5t6i#1,25988997,BLIND,7671893,NaN,complete,NaN,NaN,computer,Desktop or Laptop,Windows 10,Edge 108.0.1462.46,1280x720,1280x720,End of Day 1,SLS,90,A,Pass,End of Day 1,Pass,NaN,NaN,NaN,Pass,NaN,Pass,NaN,schedule_B,schedule_B,9,4,4,feedback_l,Zone7,timelimit_screen,1999.747,NaN,NaN,,NaN,0,1,0,NaN,NaN,1,NaN,NaN,trial_right,blueBox.png,blueBox.png,greenBox.png,al2_uncon.png,9,8,NaN,NaN,0.15,0.15,1,0,0,1,Stable,Stable,3.975,0.576,1.256,1.807,inexpert
43,1671188744360,16/12/2022 11:05:44,1671188739129,0,16/12/2022 11:05:39,109680,37,task-qrxs,repeat-7g8d#1->-repeat-38fk#1->-repeat-qjz7#1->-repeat-5t6i#1,25988997,BLIND,7671893,NaN,complete,NaN,NaN,computer,Desktop or Laptop,Windows 10,Edge 108.0.1462.46,1280x720,1280x720,End of Day 1,SLS,90,A,Pass,End of Day 1,Pass,NaN,NaN,NaN,Pass,NaN,Pass,NaN,schedule_B,schedule_B,9,4,6,end,Zone1,timelimit_screen,150.228999999999,NaN,NaN,,NaN,0,1,0,NaN,NaN,1,NaN,NaN,trial_right,blueBox.png,blueBox.png,greenBox.png,al2_uncon.png,9,8,NaN,NaN,0.15,0.15,1,0,0,1,Stable,Stable,3.975,0.576,1.256,1.807,inexpert
44,1671188745389,16/12/2022 11:05:45,1671188740154,0,16/12/2022 11:05:40,109680,37,task-qrxs,repeat-7g8d#1->-repeat-38fk#1->-repeat-qjz7#1->-repeat-5t6i#1,25988997,BLIND,7671893,NaN,complete,NaN,NaN,computer,Desktop or Laptop,Windows 10,Edge 108.0.1462.46,1280x720,1280x720,End of Day 1,SLS,90,A,Pass,End of Day 1,Pass,NaN,NaN,NaN,Pass,NaN,Pass,NaN,schedule_B,schedule_B,10,5,1,Screen 1,Zone1,continue_button,1011.59999999986,NaN,NaN,,NaN,0,1,0,NaN,NaN,NaN,NaN,NaN,trial_left,greenBox.png,blueBox.png,greenBox.png,al2_uncon.png,10,9,NaN,NaN,0.15,0.15,0,0,1,1,Stable,Stable,3.798,1.055,1.559,2.042,inexpert
45,1671188746377,16/12/2022 11:05:46,1671188741144,0,16/12/2022 11:05:41,109680,37,task-qrxs,repeat-7g8d#1->-repeat-38fk#1->-repeat-qjz7#1->-repeat-5t6i#1,25988997,BLIND,7671893,NaN,complete,NaN,NaN,computer,Desktop or Laptop,Windows 10,Edge 108.0.1462.46,1280x720,1280x720,End of Day 1,SLS,90,A,Pass,End of Day 1,Pass,NaN,NaN,NaN,Pass,NaN,Pass,NaN,schedule_B,schedule_B,10,5,2,individual,Zone4,timelimit_screen,999.972999999998,NaN,NaN,,NaN,0,1,0,NaN,NaN,1,NaN,NaN,trial_left,greenBox.png,blueBox.png,greenBox.png,al2_uncon.png,10,9,NaN,NaN,0.15,0.15,0,0,1,1,Stable,Stable,3.798,1.055,1.559,2.042,inexpert
46,1671188747383,16/12/2022 11:05:47,1671188742145,0,16/12/2022 11:05:42,109680,37,task-qrxs,repeat-7g8d#1->-repeat-38fk#1->-repeat-qjz7#1->-repeat-5t6i#1,25988997,BLIND,7671893,NaN,complete,NaN,NaN,computer,Desktop or Laptop,Windows 10,Edge 108.0.1462.46,1280x720,1280x720,End of Day 1,SLS,90,A,Pass,End of Day 1,Pass,NaN,NaN,NaN,Pass,NaN,Pass,NaN,schedule_B,schedule_B,10,5,3,offer,bluebox,response_button_image,991.699999999953,NaN,NaN,greenBox.png,1,1,0,0,NaN,NaN,NaN,NaN,NaN,trial_left,greenBox.png,blueBox.png,greenBox.png,al2_uncon.png,10,9,NaN,NaN,0.15,0.15,0,0,1,1,Stable,Stable,3.798,1.055,1.559,2.042,inexpert
47,1671188749416,16/12/2022 11:05:49,1671188744144,0,16/12/2022 11:05:44,109680,37,task-qrxs,repeat-7g8d#1->-repeat-38fk#1->-repeat-qjz7#1->-repeat-5t6i#1,25988997,BLIND,7671893,NaN,complete,NaN,NaN,computer,Desktop or Laptop,Windows 10,Edge 108.0.1462.46,1280x720,1280x720,End of Day 1,SLS,90,A,Pass,End of Day 1,Pass,NaN,NaN,NaN,Pass,NaN,Pass,NaN,schedule_B,schedule_B,10,5,5,feedback_r,Zone7,timelimit_screen,1999.722,NaN,NaN,,NaN,0,1,0,NaN,NaN,1,NaN,NaN,trial_left,greenBox.png,blueBox.png,greenBox.png,al2_uncon.png,10,9,NaN,NaN,0.15,0.15,0,0,1,1,Stable,Stable,3.798,1.055,1.559,2.042,inexpert
48,1671188749534,16/12/2022 11:05:49,1671188744295,0,16/12/2022 11:05:44,109680,37,task-qrxs,repeat-7g8d#1->-repeat-38fk#1->-repeat-qjz7#1->-repeat-5t6i#1,25988997,BLIND,7671893,NaN,complete,NaN,NaN,computer,Desktop or Laptop,Windows 10,Edge 108.0.1462.46,1280x720,1280x720,End of Day 1,SLS,90,A,Pass,End of Day 1,Pass,NaN,NaN,NaN,Pass,NaN,Pass,NaN,schedule_B,schedule_B,10,5,6,end,Zone1,timelimit_screen,150.315999999999,NaN,NaN,,NaN,0,1,0,NaN,NaN,1,NaN,NaN,trial_left,greenBox.png,blueBox.png,greenBox.png,al2_uncon.png,10,9,NaN,NaN,0.15,0.15,0,0,1,1,Stable,Stable,3.798,1.055,1.559,2.042,inexpert
49,1671188750734,16/12/2022 11:05:50,1671188745504,0,16/12/2022 11:05:45,109680,37,task-qrxs,repeat-7g8d#1->-repeat-38fk#1->-repeat-qjz7#1->-repeat-5t6i#1,25988997,BLIND,7671893,NaN,complete,NaN,NaN,computer,Desktop or Laptop,Windows 10,Edge 108.0.1462.46,1280x720,1280x720,End of Day 1,SLS,90,A,Pass,End of Day 1,Pass,NaN,NaN,NaN,Pass,NaN,Pass,NaN,schedule_B,schedule_B,11,5,1,Screen 1,Zone1,continue_button,1193.30000000005,NaN,NaN,,NaN,0,1,0,NaN,NaN,NaN,NaN,NaN,trial_right,greenBox.png,greenBox.png,blueBox.png,al2_uncon.png,21,10,NaN,NaN,0.15,0.15,0,0,1,0,Stable,Stable,1.857,0.5,1.294,2.916,inexpert
50,1671188751728,16/12/2022 11:05:51,1671188746494,0,16/12/2022 11:05:46,109680,37,task-qrxs,repeat-7g8d#1->-repeat-38fk#1->-repeat-qjz7#1->-repeat-5t6i#1,25988997,BLIND,7671893,NaN,complete,NaN,NaN,computer,Desktop or Laptop,Windows 10,Edge 108.0.1462.46,1280x720,1280x720,End of Day 1,SLS,90,A,Pass,End of Day 1,Pass,NaN,NaN,NaN,Pass,NaN,Pass,NaN,schedule_B,schedule_B,11,5,2,individual,Zone4,timelimit_screen,999.780000000006,NaN,NaN,,NaN,0,1,0,NaN,NaN,1,NaN,NaN,trial_right,greenBox.png,greenBox.png,blueBox.png,al2_uncon.png,21,10,NaN,NaN,0.15,0.15,0,0,1,0,Stable,Stable,1.857,0.5,1.294,2.916,inexpert
51,1671188753433,16/12/2022 11:05:53,1671188748202,0,16/12/2022 11:05:48,109680,37,task-qrxs,repeat-7g8d#1->-repeat-38fk#1->-repeat-qjz7#1->-repeat-5t6i#1,25988997,BLIND,7671893,NaN,complete,NaN,NaN,computer,Desktop or Laptop,Windows 10,Edge 108.0.1462.46,1280x720,1280x720,End of Day 1,SLS,90,A,Pass,End of Day 1,Pass,NaN,NaN,NaN,Pass,NaN,Pass,NaN,schedule_B,schedule_B,11,5,3,offer,Zone2,response_button_image,1698.89999999991,NaN,NaN,greenBox.png,1,1,0,0,NaN,NaN,NaN,NaN,NaN,trial_right,greenBox.png,greenBox.png,blueBox.png,al2_uncon.png,21,10,NaN,NaN,0.15,0.15,0,0,1,0,Stable,Stable,1.857,0.5,1.294,2.916,inexpert
52,1671188755425,16/12/2022 11:05:55,1671188750193,0,16/12/2022 11:05:50,109680,37,task-qrxs,repeat-7g8d#1->-repeat-38fk#1->-repeat-qjz7#1->-repeat-5t6i#1,25988997,BLIND,7671893,NaN,complete,NaN,NaN,computer,Desktop or Laptop,Windows 10,Edge 108.0.1462.46,1280x720,1280x720,End of Day 1,SLS,90,A,Pass,End of Day 1,Pass,NaN,NaN,NaN,Pass,NaN,Pass,NaN,schedule_B,schedule_B,11,5,4,feedback_l,Zone7,timelimit_screen,2000.36599999999,NaN,NaN,,NaN,0,1,0,NaN,NaN,1,NaN,NaN,trial_right,greenBox.png,greenBox.png,blueBox.png,al2_uncon.png,21,10,NaN,NaN,0.15,0.15,0,0,1,0,Stable,Stable,1.857,0.5,1.294,2.916,inexpert
53,1671188755579,16/12/2022 11:05:55,1671188750342,0,16/12/2022 11:05:50,109680,37,task-qrxs,repeat-7g8d#1->-repeat-38fk#1->-repeat-qjz7#1->-repeat-5t6i#1,25988997,BLIND,7671893,NaN,complete,NaN,NaN,computer,Desktop or Laptop,Windows 10,Edge 108.0.1462.46,1280x720,1280x720,End of Day 1,SLS,90,A,Pass,End of Day 1,Pass,NaN,NaN,NaN,Pass,NaN,Pass,NaN,schedule_B,schedule_B,11,5,6,end,Zone1,timelimit_screen,149.853999999999,NaN,NaN,,NaN,0,1,0,NaN,NaN,1,NaN,NaN,trial_right,greenBox.png,greenBox.png,blueBox.png,al2_uncon.png,21,10,NaN,NaN,0.15,0.15,0,0,1,0,Stable,Stable,1.857,0.5,1.294,2.916,inexpert
54,1671188756773,16/12/2022 11:05:56,1671188751540,0,16/12/2022 11:05:51,109680,37,task-qrxs,repeat-7g8d#1->-repeat-38fk#1->-repeat-qjz7#1->-repeat-5t6i#1,25988997,BLIND,7671893,NaN,complete,NaN,NaN,computer,Desktop or Laptop,Windows 10,Edge 108.0.1462.46,1280x720,1280x720,End of Day 1,SLS,90,A,Pass,End of Day 1,Pass,NaN,NaN,NaN,Pass,NaN,Pass,NaN,schedule_B,schedule_B,12,6,1,Screen 1,Zone1,continue_button,1189.79999999981,NaN,NaN,,NaN,0,1,0,NaN,NaN,NaN,NaN,NaN,trial_left,blueBox.png,greenBox.png,blueBox.png,al2_uncon.png,22,11,NaN,NaN,0.85,0.15,1,0,0,0,Stable,Stable,1.126,1.849,1.483,1.689,inexpert
55,1671188757759,16/12/2022 11:05:57,1671188752526,0,16/12/2022 11:05:52,109680,37,task-qrxs,repeat-7g8d#1->-repeat-38fk#1->-repeat-qjz7#1->-repeat-5t6i#1,25988997,BLIND,7671893,NaN,complete,NaN,NaN,computer,Desktop or Laptop,Windows 10,Edge 108.0.1462.46,1280x720,1280x720,End of Day 1,SLS,90,A,Pass,End of Day 1,Pass,NaN,NaN,NaN,Pass,NaN,Pass,NaN,schedule_B,schedule_B,12,6,2,individual,Zone4,timelimit_screen,1000.22100000001,NaN,NaN,,NaN,0,1,0,NaN,NaN,1,NaN,NaN,trial_left,blueBox.png,greenBox.png,blueBox.png,al2_uncon.png,22,11,NaN,NaN,0.85,0.15,1,0,0,0,Stable,Stable,1.126,1.849,1.483,1.689,inexpert
56,1671188758548,16/12/2022 11:05:58,1671188753316,0,16/12/2022 11:05:53,109680,37,task-qrxs,repeat-7g8d#1->-repeat-38fk#1->-repeat-qjz7#1->-repeat-5t6i#1,25988997,BLIND,7671893,NaN,complete,NaN,NaN,computer,Desktop or Laptop,Windows 10,Edge 108.0.1462.46,1280x720,1280x720,End of Day 1,SLS,90,A,Pass,End of Day 1,Pass,NaN,NaN,NaN,Pass,NaN,Pass,NaN,schedule_B,schedule_B,12,6,3,offer,bluebox,response_button_image,779.800000000047,NaN,NaN,blueBox.png,1,1,0,0,NaN,NaN,NaN,NaN,NaN,trial_left,blueBox.png,greenBox.png,blueBox.png,al2_uncon.png,22,11,NaN,NaN,0.85,0.15,1,0,0,0,Stable,Stable,1.126,1.849,1.483,1.689,inexpert
57,1671188760540,16/12/2022 11:06:00,1671188755310,0,16/12/2022 11:05:55,109680,37,task-qrxs,repeat-7g8d#1->-repeat-38fk#1->-repeat-qjz7#1->-repeat-5t6i#1,25988997,BLIND,7671893,NaN,complete,NaN,NaN,computer,Desktop or Laptop,Windows 10,Edge 108.0.1462.46,1280x720,1280x720,End of Day 1,SLS,90,A,Pass,End of Day 1,Pass,NaN,NaN,NaN,Pass,NaN,Pass,NaN,schedule_B,schedule_B,12,6,5,feedback_r,Zone7,timelimit_screen,1999.668,NaN,NaN,,NaN,0,1,0,NaN,NaN,1,NaN,NaN,trial_left,blueBox.png,greenBox.png,blueBox.png,al2_uncon.png,22,11,NaN,NaN,0.85,0.15,1,0,0,0,Stable,Stable,1.126,1.849,1.483,1.689,inexpert
58,1671188760694,16/12/2022 11:06:00,1671188755460,0,16/12/2022 11:05:55,109680,37,task-qrxs,repeat-7g8d#1->-repeat-38fk#1->-repeat-qjz7#1->-repeat-5t6i#1,25988997,BLIND,7671893,NaN,complete,NaN,NaN,computer,Desktop or Laptop,Windows 10,Edge 108.0.1462.46,1280x720,1280x720,End of Day 1,SLS,90,A,Pass,End of Day 1,Pass,NaN,NaN,NaN,Pass,NaN,Pass,NaN,schedule_B,schedule_B,12,6,6,end,Zone1,timelimit_screen,150.321000000011,NaN,NaN,,NaN,0,1,0,NaN,NaN,1,NaN,NaN,trial_left,blueBox.png,greenBox.png,blueBox.png,al2_uncon.png,22,11,NaN,NaN,0.85,0.15,1,0,0,0,Stable,Stable,1.126,1.849,1.483,1.689,inexpert
59,1671188761526,16/12/2022 11:06:01,1671188756295,0,16/12/2022 11:05:56,109680,37,task-qrxs,repeat-7g8d#1->-repeat-38fk#1->-repeat-qjz7#1->-repeat-5t6i#1,25988997,BLIND,7671893,NaN,complete,NaN,NaN,computer,Desktop or Laptop,Windows 10,Edge 108.0.1462.46,1280x720,1280x720,End of Day 1,SLS,90,A,Pass,End of Day 1,Pass,NaN,NaN,NaN,Pass,NaN,Pass,NaN,schedule_B,schedule_B,13,7,1,Screen 1,Zone1,continue_button,817.100000000093,NaN,NaN,,NaN,0,1,0,NaN,NaN,NaN,NaN,NaN,trial_left,blueBox.png,greenBox.png,blueBox.png,al2_uncon.png,23,12,NaN,NaN,0.85,0.15,1,0,0,0,Stable,Stable,2.361,0.992,0.5,1.975,inexpert
60,1671188762522,16/12/2022 11:06:02,1671188757292,0,16/12/2022 11:05:57,109680,37,task-qrxs,repeat-7g8d#1->-repeat-38fk#1->-repeat-qjz7#1->-repeat-5t6i#1,25988997,BLIND,7671893,NaN,complete,NaN,NaN,computer,Desktop or Laptop,Windows 10,Edge 108.0.1462.46,1280x720,1280x720,End of Day 1,SLS,90,A,Pass,End of Day 1,Pass,NaN,NaN,NaN,Pass,NaN,Pass,NaN,schedule_B,schedule_B,13,7,2,individual,Zone4,timelimit_screen,999.421999999991,NaN,NaN,,NaN,0,1,0,NaN,NaN,1,NaN,NaN,trial_left,blueBox.png,greenBox.png,blueBox.png,al2_uncon.png,23,12,NaN,NaN,0.85,0.15,1,0,0,0,Stable,Stable,2.361,0.992,0.5,1.975,inexpert
61,1671188763425,16/12/2022 11:06:03,1671188758192,0,16/12/2022 11:05:58,109680,37,task-qrxs,repeat-7g8d#1->-repeat-38fk#1->-repeat-qjz7#1->-repeat-5t6i#1,25988997,BLIND,7671893,NaN,complete,NaN,NaN,computer,Desktop or Laptop,Windows 10,Edge 108.0.1462.46,1280x720,1280x720,End of Day 1,SLS,90,A,Pass,End of Day 1,Pass,NaN,NaN,NaN,Pass,NaN,Pass,NaN,schedule_B,schedule_B,13,7,3,offer,bluebox,response_button_image,891,NaN,NaN,blueBox.png,1,1,0,0,NaN,NaN,NaN,NaN,NaN,trial_left,blueBox.png,greenBox.png,blueBox.png,al2_uncon.png,23,12,NaN,NaN,0.85,0.15,1,0,0,0,Stable,Stable,2.361,0.992,0.5,1.975,inexpert
62,1671188765419,16/12/2022 11:06:05,1671188760176,0,16/12/2022 11:06:00,109680,37,task-qrxs,repeat-7g8d#1->-repeat-38fk#1->-repeat-qjz7#1->-repeat-5t6i#1,25988997,BLIND,7671893,NaN,complete,NaN,NaN,computer,Desktop or Laptop,Windows 10,Edge 108.0.1462.46,1280x720,1280x720,End of Day 1,SLS,90,A,Pass,End of Day 1,Pass,NaN,NaN,NaN,Pass,NaN,Pass,NaN,schedule_B,schedule_B,13,7,5,feedback_r,Zone7,timelimit_screen,1999.633,NaN,NaN,,NaN,0,1,0,NaN,NaN,1,NaN,NaN,trial_left,blueBox.png,greenBox.png,blueBox.png,al2_uncon.png,23,12,NaN,NaN,0.85,0.15,1,0,0,0,Stable,Stable,2.361,0.992,0.5,1.975,inexpert
63,1671188765562,16/12/2022 11:06:05,1671188760326,0,16/12/2022 11:06:00,109680,37,task-qrxs,repeat-7g8d#1->-repeat-38fk#1->-repeat-qjz7#1->-repeat-5t6i#1,25988997,BLIND,7671893,NaN,complete,NaN,NaN,computer,Desktop or Laptop,Windows 10,Edge 108.0.1462.46,1280x720,1280x720,End of Day 1,SLS,90,A,Pass,End of Day 1,Pass,NaN,NaN,NaN,Pass,NaN,Pass,NaN,schedule_B,schedule_B,13,7,6,end,Zone1,timelimit_screen,150.199999999997,NaN,NaN,,NaN,0,1,0,NaN,NaN,1,NaN,NaN,trial_left,blueBox.png,greenBox.png,blueBox.png,al2_uncon.png,23,12,NaN,NaN,0.85,0.15,1,0,0,0,Stable,Stable,2.361,0.992,0.5,1.975,inexpert
64,1671188766886,16/12/2022 11:06:06,1671188761654,0,16/12/2022 11:06:01,109680,37,task-qrxs,repeat-7g8d#1->-repeat-38fk#1->-repeat-qjz7#1->-repeat-5t6i#1,25988997,BLIND,7671893,NaN,complete,NaN,NaN,computer,Desktop or Laptop,Windows 10,Edge 108.0.1462.46,1280x720,1280x720,End of Day 1,SLS,90,A,Pass,End of Day 1,Pass,NaN,NaN,NaN,Pass,NaN,Pass,NaN,schedule_B,schedule_B,14,6,1,Screen 1,Zone1,continue_button,1311.30000000005,NaN,NaN,,NaN,0,1,0,NaN,NaN,NaN,NaN,NaN,trial_right,blueBox.png,blueBox.png,greenBox.png,al2_uncon.png,24,13,NaN,NaN,0.85,0.15,1,0,0,1,Stable,Stable,1.05,1.95,1.319,1.487,inexpert
65,1671188767874,16/12/2022 11:06:07,1671188762642,0,16/12/2022 11:06:02,109680,37,task-qrxs,repeat-7g8d#1->-repeat-38fk#1->-repeat-qjz7#1->-repeat-5t6i#1,25988997,BLIND,7671893,NaN,complete,NaN,NaN,computer,Desktop or Laptop,Windows 10,Edge 108.0.1462.46,1280x720,1280x720,End of Day 1,SLS,90,A,Pass,End of Day 1,Pass,NaN,NaN,NaN,Pass,NaN,Pass,NaN,schedule_B,schedule_B,14,6,2,individual,Zone4,timelimit_screen,999.861000000004,NaN,NaN,,NaN,0,1,0,NaN,NaN,1,NaN,NaN,trial_right,blueBox.png,blueBox.png,greenBox.png,al2_uncon.png,24,13,NaN,NaN,0.85,0.15,1,0,0,1,Stable,Stable,1.05,1.95,1.319,1.487,inexpert
66,1671188768801,16/12/2022 11:06:08,1671188763571,0,16/12/2022 11:06:03,109680,37,task-qrxs,repeat-7g8d#1->-repeat-38fk#1->-repeat-qjz7#1->-repeat-5t6i#1,25988997,BLIND,7671893,NaN,complete,NaN,NaN,computer,Desktop or Laptop,Windows 10,Edge 108.0.1462.46,1280x720,1280x720,End of Day 1,SLS,90,A,Pass,End of Day 1,Pass,NaN,NaN,NaN,Pass,NaN,Pass,NaN,schedule_B,schedule_B,14,6,3,offer,Zone2,response_button_image,919.699999999953,NaN,NaN,blueBox.png,1,1,0,0,NaN,NaN,NaN,NaN,NaN,trial_right,blueBox.png,blueBox.png,greenBox.png,al2_uncon.png,24,13,NaN,NaN,0.85,0.15,1,0,0,1,Stable,Stable,1.05,1.95,1.319,1.487,inexpert
67,1671188770793,16/12/2022 11:06:10,1671188765556,0,16/12/2022 11:06:05,109680,37,task-qrxs,repeat-7g8d#1->-repeat-38fk#1->-repeat-qjz7#1->-repeat-5t6i#1,25988997,BLIND,7671893,NaN,complete,NaN,NaN,computer,Desktop or Laptop,Windows 10,Edge 108.0.1462.46,1280x720,1280x720,End of Day 1,SLS,90,A,Pass,End of Day 1,Pass,NaN,NaN,NaN,Pass,NaN,Pass,NaN,schedule_B,schedule_B,14,6,4,feedback_l,Zone7,timelimit_screen,1999.13699999999,NaN,NaN,,NaN,0,1,0,NaN,NaN,1,NaN,NaN,trial_right,blueBox.png,blueBox.png,greenBox.png,al2_uncon.png,24,13,NaN,NaN,0.85,0.15,1,0,0,1,Stable,Stable,1.05,1.95,1.319,1.487,inexpert
68,1671188770942,16/12/2022 11:06:10,1671188765706,0,16/12/2022 11:06:05,109680,37,task-qrxs,repeat-7g8d#1->-repeat-38fk#1->-repeat-qjz7#1->-repeat-5t6i#1,25988997,BLIND,7671893,NaN,complete,NaN,NaN,computer,Desktop or Laptop,Windows 10,Edge 108.0.1462.46,1280x720,1280x720,End of Day 1,SLS,90,A,Pass,End of Day 1,Pass,NaN,NaN,NaN,Pass,NaN,Pass,NaN,schedule_B,schedule_B,14,6,6,end,Zone1,timelimit_screen,149.984000000011,NaN,NaN,,NaN,0,1,0,NaN,NaN,1,NaN,NaN,trial_right,blueBox.png,blueBox.png,greenBox.png,al2_uncon.png,24,13,NaN,NaN,0.85,0.15,1,0,0,1,Stable,Stable,1.05,1.95,1.319,1.487,inexpert
69,1671188772074,16/12/2022 11:06:12,1671188766837,0,16/12/2022 11:06:06,109680,37,task-qrxs,repeat-7g8d#1->-repeat-38fk#1->-repeat-qjz7#1->-repeat-5t6i#1,25988997,BLIND,7671893,NaN,complete,NaN,NaN,computer,Desktop or Laptop,Windows 10,Edge 108.0.1462.46,1280x720,1280x720,End of Day 1,SLS,90,A,Pass,End of Day 1,Pass,NaN,NaN,NaN,Pass,NaN,Pass,NaN,schedule_B,schedule_B,15,7,1,Screen 1,Zone1,continue_button,1122.19999999995,NaN,NaN,,NaN,0,1,0,NaN,NaN,NaN,NaN,NaN,trial_right,blueBox.png,blueBox.png,greenBox.png,al2_uncon.png,25,14,NaN,NaN,0.85,0.15,1,0,0,1,Stable,Stable,3.395,0.84,0.803,1.252,inexpert
70,1671188773063,16/12/2022 11:06:13,1671188767823,0,16/12/2022 11:06:07,109680,37,task-qrxs,repeat-7g8d#1->-repeat-38fk#1->-repeat-qjz7#1->-repeat-5t6i#1,25988997,BLIND,7671893,NaN,complete,NaN,NaN,computer,Desktop or Laptop,Windows 10,Edge 108.0.1462.46,1280x720,1280x720,End of Day 1,SLS,90,A,Pass,End of Day 1,Pass,NaN,NaN,NaN,Pass,NaN,Pass,NaN,schedule_B,schedule_B,15,7,2,individual,Zone4,timelimit_screen,996.471000000005,NaN,NaN,,NaN,0,1,0,NaN,NaN,1,NaN,NaN,trial_right,blueBox.png,blueBox.png,greenBox.png,al2_uncon.png,25,14,NaN,NaN,0.85,0.15,1,0,0,1,Stable,Stable,3.395,0.84,0.803,1.252,inexpert
71,1671188774133,16/12/2022 11:06:14,1671188768902,0,16/12/2022 11:06:08,109680,37,task-qrxs,repeat-7g8d#1->-repeat-38fk#1->-repeat-qjz7#1->-repeat-5t6i#1,25988997,BLIND,7671893,NaN,complete,NaN,NaN,computer,Desktop or Laptop,Windows 10,Edge 108.0.1462.46,1280x720,1280x720,End of Day 1,SLS,90,A,Pass,End of Day 1,Pass,NaN,NaN,NaN,Pass,NaN,Pass,NaN,schedule_B,schedule_B,15,7,3,offer,Zone2,response_button_image,1074.80000000005,NaN,NaN,blueBox.png,1,1,0,0,NaN,NaN,NaN,NaN,NaN,trial_right,blueBox.png,blueBox.png,greenBox.png,al2_uncon.png,25,14,NaN,NaN,0.85,0.15,1,0,0,1,Stable,Stable,3.395,0.84,0.803,1.252,inexpert
72,1671188776124,16/12/2022 11:06:16,1671188770889,0,16/12/2022 11:06:10,109680,37,task-qrxs,repeat-7g8d#1->-repeat-38fk#1->-repeat-qjz7#1->-repeat-5t6i#1,25988997,BLIND,7671893,NaN,complete,NaN,NaN,computer,Desktop or Laptop,Windows 10,Edge 108.0.1462.46,1280x720,1280x720,End of Day 1,SLS,90,A,Pass,End of Day 1,Pass,NaN,NaN,NaN,Pass,NaN,Pass,NaN,schedule_B,schedule_B,15,7,4,feedback_l,Zone7,timelimit_screen,1999.751,NaN,NaN,,NaN,0,1,0,NaN,NaN,1,NaN,NaN,trial_right,blueBox.png,blueBox.png,greenBox.png,al2_uncon.png,25,14,NaN,NaN,0.85,0.15,1,0,0,1,Stable,Stable,3.395,0.84,0.803,1.252,inexpert
73,1671188776271,16/12/2022 11:06:16,1671188771040,0,16/12/2022 11:06:11,109680,37,task-qrxs,repeat-7g8d#1->-repeat-38fk#1->-repeat-qjz7#1->-repeat-5t6i#1,25988997,BLIND,7671893,NaN,complete,NaN,NaN,computer,Desktop or Laptop,Windows 10,Edge 108.0.1462.46,1280x720,1280x720,End of Day 1,SLS,90,A,Pass,End of Day 1,Pass,NaN,NaN,NaN,Pass,NaN,Pass,NaN,schedule_B,schedule_B,15,7,6,end,Zone1,timelimit_screen,150.058999999994,NaN,NaN,,NaN,0,1,0,NaN,NaN,1,NaN,NaN,trial_right,blueBox.png,blueBox.png,greenBox.png,al2_uncon.png,25,14,NaN,NaN,0.85,0.15,1,0,0,1,Stable,Stable,3.395,0.84,0.803,1.252,inexpert
74,1671188777348,16/12/2022 11:06:17,1671188772098,0,16/12/2022 11:06:12,109680,37,task-qrxs,repeat-7g8d#1->-repeat-38fk#1->-repeat-qjz7#1->-repeat-5t6i#1,25988997,BLIND,7671893,NaN,complete,NaN,NaN,computer,Desktop or Laptop,Windows 10,Edge 108.0.1462.46,1280x720,1280x720,End of Day 1,SLS,90,A,Pass,End of Day 1,Pass,NaN,NaN,NaN,Pass,NaN,Pass,NaN,schedule_B,schedule_B,16,8,1,Screen 1,Zone1,continue_button,1047.69999999995,NaN,NaN,,NaN,0,1,0,NaN,NaN,NaN,NaN,NaN,trial_left,blueBox.png,blueBox.png,greenBox.png,al2_uncon.png,26,15,NaN,NaN,0.85,0.15,1,1,1,1,Stable,Stable,2.689,1.067,1.697,2.731,inexpert
75,1671188778319,16/12/2022 11:06:18,1671188773089,0,16/12/2022 11:06:13,109680,37,task-qrxs,repeat-7g8d#1->-repeat-38fk#1->-repeat-qjz7#1->-repeat-5t6i#1,25988997,BLIND,7671893,NaN,complete,NaN,NaN,computer,Desktop or Laptop,Windows 10,Edge 108.0.1462.46,1280x720,1280x720,End of Day 1,SLS,90,A,Pass,End of Day 1,Pass,NaN,NaN,NaN,Pass,NaN,Pass,NaN,schedule_B,schedule_B,16,8,2,individual,Zone4,timelimit_screen,999.898000000001,NaN,NaN,,NaN,0,1,0,NaN,NaN,1,NaN,NaN,trial_left,blueBox.png,blueBox.png,greenBox.png,al2_uncon.png,26,15,NaN,NaN,0.85,0.15,1,1,1,1,Stable,Stable,2.689,1.067,1.697,2.731,inexpert
76,1671188779294,16/12/2022 11:06:19,1671188774065,0,16/12/2022 11:06:14,109680,37,task-qrxs,repeat-7g8d#1->-repeat-38fk#1->-repeat-qjz7#1->-repeat-5t6i#1,25988997,BLIND,7671893,NaN,complete,NaN,NaN,computer,Desktop or Laptop,Windows 10,Edge 108.0.1462.46,1280x720,1280x720,End of Day 1,SLS,90,A,Pass,End of Day 1,Pass,NaN,NaN,NaN,Pass,NaN,Pass,NaN,schedule_B,schedule_B,16,8,3,offer,bluebox,response_button_image,970.600000000093,NaN,NaN,greenBox.png,1,0,1,0,NaN,NaN,NaN,NaN,NaN,trial_left,blueBox.png,blueBox.png,greenBox.png,al2_uncon.png,26,15,NaN,NaN,0.85,0.15,1,1,1,1,Stable,Stable,2.689,1.067,1.697,2.731,inexpert
77,1671188781314,16/12/2022 11:06:21,1671188776055,0,16/12/2022 11:06:16,109680,37,task-qrxs,repeat-7g8d#1->-repeat-38fk#1->-repeat-qjz7#1->-repeat-5t6i#1,25988997,BLIND,7671893,NaN,complete,NaN,NaN,computer,Desktop or Laptop,Windows 10,Edge 108.0.1462.46,1280x720,1280x720,End of Day 1,SLS,90,A,Pass,End of Day 1,Pass,NaN,NaN,NaN,Pass,NaN,Pass,NaN,schedule_B,schedule_B,16,8,5,feedback_r,Zone7,timelimit_screen,1999.716,NaN,NaN,,NaN,0,1,0,NaN,NaN,1,NaN,NaN,trial_left,blueBox.png,blueBox.png,greenBox.png,al2_uncon.png,26,15,NaN,NaN,0.85,0.15,1,1,1,1,Stable,Stable,2.689,1.067,1.697,2.731,inexpert
78,1671188781464,16/12/2022 11:06:21,1671188776206,0,16/12/2022 11:06:16,109680,37,task-qrxs,repeat-7g8d#1->-repeat-38fk#1->-repeat-qjz7#1->-repeat-5t6i#1,25988997,BLIND,7671893,NaN,complete,NaN,NaN,computer,Desktop or Laptop,Windows 10,Edge 108.0.1462.46,1280x720,1280x720,End of Day 1,SLS,90,A,Pass,End of Day 1,Pass,NaN,NaN,NaN,Pass,NaN,Pass,NaN,schedule_B,schedule_B,16,8,6,end,Zone1,timelimit_screen,149.846999999994,NaN,NaN,,NaN,0,1,0,NaN,NaN,1,NaN,NaN,trial_left,blueBox.png,blueBox.png,greenBox.png,al2_uncon.png,26,15,NaN,NaN,0.85,0.15,1,1,1,1,Stable,Stable,2.689,1.067,1.697,2.731,inexpert
79,1671188782721,16/12/2022 11:06:22,1671188777490,0,16/12/2022 11:06:17,109680,37,task-qrxs,repeat-7g8d#1->-repeat-38fk#1->-repeat-qjz7#1->-repeat-5t6i#1,25988997,BLIND,7671893,NaN,complete,NaN,NaN,computer,Desktop or Laptop,Windows 10,Edge 108.0.1462.46,1280x720,1280x720,End of Day 1,SLS,90,A,Pass,End of Day 1,Pass,NaN,NaN,NaN,Pass,NaN,Pass,NaN,schedule_B,schedule_B,17,9,1,Screen 1,Zone1,continue_button,1273.69999999995,NaN,NaN,,NaN,0,1,0,NaN,NaN,NaN,NaN,NaN,trial_left,greenBox.png,greenBox.png,blueBox.png,al2_uncon.png,27,16,NaN,NaN,0.15,0.15,0,1,0,0,Stable,Stable,1.378,0.689,0.878,2.076,inexpert
80,1671188783720,16/12/2022 11:06:23,1671188778488,0,16/12/2022 11:06:18,109680,37,task-qrxs,repeat-7g8d#1->-repeat-38fk#1->-repeat-qjz7#1->-repeat-5t6i#1,25988997,BLIND,7671893,NaN,complete,NaN,NaN,computer,Desktop or Laptop,Windows 10,Edge 108.0.1462.46,1280x720,1280x720,End of Day 1,SLS,90,A,Pass,End of Day 1,Pass,NaN,NaN,NaN,Pass,NaN,Pass,NaN,schedule_B,schedule_B,17,9,2,individual,Zone4,timelimit_screen,999.887000000002,NaN,NaN,,NaN,0,1,0,NaN,NaN,1,NaN,NaN,trial_left,greenBox.png,greenBox.png,blueBox.png,al2_uncon.png,27,16,NaN,NaN,0.15,0.15,0,1,0,0,Stable,Stable,1.378,0.689,0.878,2.076,inexpert
81,1671188784902,16/12/2022 11:06:24,1671188779666,0,16/12/2022 11:06:19,109680,37,task-qrxs,repeat-7g8d#1->-repeat-38fk#1->-repeat-qjz7#1->-repeat-5t6i#1,25988997,BLIND,7671893,NaN,complete,NaN,NaN,computer,Desktop or Laptop,Windows 10,Edge 108.0.1462.46,1280x720,1280x720,End of Day 1,SLS,90,A,Pass,End of Day 1,Pass,NaN,NaN,NaN,Pass,NaN,Pass,NaN,schedule_B,schedule_B,17,9,3,offer,Zone2,response_button_image,1173.5,NaN,NaN,greenBox.png,1,1,0,0,NaN,NaN,NaN,NaN,NaN,trial_left,greenBox.png,greenBox.png,blueBox.png,al2_uncon.png,27,16,NaN,NaN,0.15,0.15,0,1,0,0,Stable,Stable,1.378,0.689,0.878,2.076,inexpert
82,1671188786902,16/12/2022 11:06:26,1671188781656,0,16/12/2022 11:06:21,109680,37,task-qrxs,repeat-7g8d#1->-repeat-38fk#1->-repeat-qjz7#1->-repeat-5t6i#1,25988997,BLIND,7671893,NaN,complete,NaN,NaN,computer,Desktop or Laptop,Windows 10,Edge 108.0.1462.46,1280x720,1280x720,End of Day 1,SLS,90,A,Pass,End of Day 1,Pass,NaN,NaN,NaN,Pass,NaN,Pass,NaN,schedule_B,schedule_B,17,9,4,feedback_l,Zone7,timelimit_screen,2000.08399999999,NaN,NaN,,NaN,0,1,0,NaN,NaN,1,NaN,NaN,trial_left,greenBox.png,greenBox.png,blueBox.png,al2_uncon.png,27,16,NaN,NaN,0.15,0.15,0,1,0,0,Stable,Stable,1.378,0.689,0.878,2.076,inexpert
83,1671188787043,16/12/2022 11:06:27,1671188781806,0,16/12/2022 11:06:21,109680,37,task-qrxs,repeat-7g8d#1->-repeat-38fk#1->-repeat-qjz7#1->-repeat-5t6i#1,25988997,BLIND,7671893,NaN,complete,NaN,NaN,computer,Desktop or Laptop,Windows 10,Edge 108.0.1462.46,1280x720,1280x720,End of Day 1,SLS,90,A,Pass,End of Day 1,Pass,NaN,NaN,NaN,Pass,NaN,Pass,NaN,schedule_B,schedule_B,17,9,6,end,Zone1,timelimit_screen,149.90400000001,NaN,NaN,,NaN,0,1,0,NaN,NaN,1,NaN,NaN,trial_left,greenBox.png,greenBox.png,blueBox.png,al2_uncon.png,27,16,NaN,NaN,0.15,0.15,0,1,0,0,Stable,Stable,1.378,0.689,0.878,2.076,inexpert
84,1671188788136,16/12/2022 11:06:28,1671188782898,0,16/12/2022 11:06:22,109680,37,task-qrxs,repeat-7g8d#1->-repeat-38fk#1->-repeat-qjz7#1->-repeat-5t6i#1,25988997,BLIND,7671893,NaN,complete,NaN,NaN,computer,Desktop or Laptop,Windows 10,Edge 108.0.1462.46,1280x720,1280x720,End of Day 1,SLS,90,A,Pass,End of Day 1,Pass,NaN,NaN,NaN,Pass,NaN,Pass,NaN,schedule_B,schedule_B,18,8,1,Screen 1,Zone1,continue_button,1076,NaN,NaN,,NaN,0,1,0,NaN,NaN,NaN,NaN,NaN,trial_right,greenBox.png,blueBox.png,greenBox.png,al2_uncon.png,28,17,NaN,NaN,0.15,0.15,0,1,0,1,Stable,Stable,2.714,0.739,1.975,1.134,inexpert
85,1671188789123,16/12/2022 11:06:29,1671188783891,0,16/12/2022 11:06:23,109680,37,task-qrxs,repeat-7g8d#1->-repeat-38fk#1->-repeat-qjz7#1->-repeat-5t6i#1,25988997,BLIND,7671893,NaN,complete,NaN,NaN,computer,Desktop or Laptop,Windows 10,Edge 108.0.1462.46,1280x720,1280x720,End of Day 1,SLS,90,A,Pass,End of Day 1,Pass,NaN,NaN,NaN,Pass,NaN,Pass,NaN,schedule_B,schedule_B,18,8,2,individual,Zone4,timelimit_screen,1000.40300000001,NaN,NaN,,NaN,0,1,0,NaN,NaN,1,NaN,NaN,trial_right,greenBox.png,blueBox.png,greenBox.png,al2_uncon.png,28,17,NaN,NaN,0.15,0.15,0,1,0,1,Stable,Stable,2.714,0.739,1.975,1.134,inexpert
86,1671188790052,16/12/2022 11:06:30,1671188784811,0,16/12/2022 11:06:24,109680,37,task-qrxs,repeat-7g8d#1->-repeat-38fk#1->-repeat-qjz7#1->-repeat-5t6i#1,25988997,BLIND,7671893,NaN,complete,NaN,NaN,computer,Desktop or Laptop,Windows 10,Edge 108.0.1462.46,1280x720,1280x720,End of Day 1,SLS,90,A,Pass,End of Day 1,Pass,NaN,NaN,NaN,Pass,NaN,Pass,NaN,schedule_B,schedule_B,18,8,3,offer,Zone3,response_button_image,914.09999999986,NaN,NaN,greenBox.png,1,1,0,0,NaN,NaN,NaN,NaN,NaN,trial_right,greenBox.png,blueBox.png,greenBox.png,al2_uncon.png,28,17,NaN,NaN,0.15,0.15,0,1,0,1,Stable,Stable,2.714,0.739,1.975,1.134,inexpert
87,1671188792040,16/12/2022 11:06:32,1671188786805,0,16/12/2022 11:06:26,109680,37,task-qrxs,repeat-7g8d#1->-repeat-38fk#1->-repeat-qjz7#1->-repeat-5t6i#1,25988997,BLIND,7671893,NaN,complete,NaN,NaN,computer,Desktop or Laptop,Windows 10,Edge 108.0.1462.46,1280x720,1280x720,End of Day 1,SLS,90,A,Pass,End of Day 1,Pass,NaN,NaN,NaN,Pass,NaN,Pass,NaN,schedule_B,schedule_B,18,8,5,feedback_r,Zone7,timelimit_screen,1999.553,NaN,NaN,,NaN,0,1,0,NaN,NaN,1,NaN,NaN,trial_right,greenBox.png,blueBox.png,greenBox.png,al2_uncon.png,28,17,NaN,NaN,0.15,0.15,0,1,0,1,Stable,Stable,2.714,0.739,1.975,1.134,inexpert
88,1671188792196,16/12/2022 11:06:32,1671188786955,0,16/12/2022 11:06:26,109680,37,task-qrxs,repeat-7g8d#1->-repeat-38fk#1->-repeat-qjz7#1->-repeat-5t6i#1,25988997,BLIND,7671893,NaN,complete,NaN,NaN,computer,Desktop or Laptop,Windows 10,Edge 108.0.1462.46,1280x720,1280x720,End of Day 1,SLS,90,A,Pass,End of Day 1,Pass,NaN,NaN,NaN,Pass,NaN,Pass,NaN,schedule_B,schedule_B,18,8,6,end,Zone1,timelimit_screen,149.941000000006,NaN,NaN,,NaN,0,1,0,NaN,NaN,1,NaN,NaN,trial_right,greenBox.png,blueBox.png,greenBox.png,al2_uncon.png,28,17,NaN,NaN,0.15,0.15,0,1,0,1,Stable,Stable,2.714,0.739,1.975,1.134,inexpert
89,1671188793498,16/12/2022 11:06:33,1671188788258,0,16/12/2022 11:06:28,109680,37,task-qrxs,repeat-7g8d#1->-repeat-38fk#1->-repeat-qjz7#1->-repeat-5t6i#1,25988997,BLIND,7671893,NaN,complete,NaN,NaN,computer,Desktop or Laptop,Windows 10,Edge 108.0.1462.46,1280x720,1280x720,End of Day 1,SLS,90,A,Pass,End of Day 1,Pass,NaN,NaN,NaN,Pass,NaN,Pass,NaN,schedule_B,schedule_B,19,9,1,Screen 1,Zone1,continue_button,1289.59999999986,NaN,NaN,,NaN,0,1,0,NaN,NaN,NaN,NaN,NaN,trial_right,greenBox.png,greenBox.png,blueBox.png,al2_uncon.png,29,18,NaN,NaN,0.15,0.15,0,0,1,0,Stable,Stable,3.874,0.676,1.496,1.639,inexpert
90,1671188794486,16/12/2022 11:06:34,1671188789252,0,16/12/2022 11:06:29,109680,37,task-qrxs,repeat-7g8d#1->-repeat-38fk#1->-repeat-qjz7#1->-repeat-5t6i#1,25988997,BLIND,7671893,NaN,complete,NaN,NaN,computer,Desktop or Laptop,Windows 10,Edge 108.0.1462.46,1280x720,1280x720,End of Day 1,SLS,90,A,Pass,End of Day 1,Pass,NaN,NaN,NaN,Pass,NaN,Pass,NaN,schedule_B,schedule_B,19,9,2,individual,Zone4,timelimit_screen,999.676000000007,NaN,NaN,,NaN,0,1,0,NaN,NaN,1,NaN,NaN,trial_right,greenBox.png,greenBox.png,blueBox.png,al2_uncon.png,29,18,NaN,NaN,0.15,0.15,0,0,1,0,Stable,Stable,3.874,0.676,1.496,1.639,inexpert
91,1671188795535,16/12/2022 11:06:35,1671188790302,0,16/12/2022 11:06:30,109680,37,task-qrxs,repeat-7g8d#1->-repeat-38fk#1->-repeat-qjz7#1->-repeat-5t6i#1,25988997,BLIND,7671893,NaN,complete,NaN,NaN,computer,Desktop or Laptop,Windows 10,Edge 108.0.1462.46,1280x720,1280x720,End of Day 1,SLS,90,A,Pass,End of Day 1,Pass,NaN,NaN,NaN,Pass,NaN,Pass,NaN,schedule_B,schedule_B,19,9,3,offer,Zone3,response_button_image,1044.70000000019,NaN,NaN,blueBox.png,1,0,1,0,NaN,NaN,NaN,NaN,NaN,trial_right,greenBox.png,greenBox.png,blueBox.png,al2_uncon.png,29,18,NaN,NaN,0.15,0.15,0,0,1,0,Stable,Stable,3.874,0.676,1.496,1.639,inexpert
92,1671188797534,16/12/2022 11:06:37,1671188792301,0,16/12/2022 11:06:32,109680,37,task-qrxs,repeat-7g8d#1->-repeat-38fk#1->-repeat-qjz7#1->-repeat-5t6i#1,25988997,BLIND,7671893,NaN,complete,NaN,NaN,computer,Desktop or Laptop,Windows 10,Edge 108.0.1462.46,1280x720,1280x720,End of Day 1,SLS,90,A,Pass,End of Day 1,Pass,NaN,NaN,NaN,Pass,NaN,Pass,NaN,schedule_B,schedule_B,19,9,5,feedback_r,Zone7,timelimit_screen,1999.746,NaN,NaN,,NaN,0,1,0,NaN,NaN,1,NaN,NaN,trial_right,greenBox.png,greenBox.png,blueBox.png,al2_uncon.png,29,18,NaN,NaN,0.15,0.15,0,0,1,0,Stable,Stable,3.874,0.676,1.496,1.639,inexpert
93,1671188797682,16/12/2022 11:06:37,1671188792450,0,16/12/2022 11:06:32,109680,37,task-qrxs,repeat-7g8d#1->-repeat-38fk#1->-repeat-qjz7#1->-repeat-5t6i#1,25988997,BLIND,7671893,NaN,complete,NaN,NaN,computer,Desktop or Laptop,Windows 10,Edge 108.0.1462.46,1280x720,1280x720,End of Day 1,SLS,90,A,Pass,End of Day 1,Pass,NaN,NaN,NaN,Pass,NaN,Pass,NaN,schedule_B,schedule_B,19,9,6,end,Zone1,timelimit_screen,149.925000000003,NaN,NaN,,NaN,0,1,0,NaN,NaN,1,NaN,NaN,trial_right,greenBox.png,greenBox.png,blueBox.png,al2_uncon.png,29,18,NaN,NaN,0.15,0.15,0,0,1,0,Stable,Stable,3.874,0.676,1.496,1.639,inexpert
94,1671188798727,16/12/2022 11:06:38,1671188793493,0,16/12/2022 11:06:33,109680,37,task-qrxs,repeat-7g8d#1->-repeat-38fk#1->-repeat-qjz7#1->-repeat-5t6i#1,25988997,BLIND,7671893,NaN,complete,NaN,NaN,computer,Desktop or Laptop,Windows 10,Edge 108.0.1462.46,1280x720,1280x720,End of Day 1,SLS,90,A,Pass,End of Day 1,Pass,NaN,NaN,NaN,Pass,NaN,Pass,NaN,schedule_B,schedule_B,20,10,1,Screen 1,Zone1,continue_button,1034.19999999995,NaN,NaN,,NaN,0,1,0,NaN,NaN,NaN,NaN,NaN,trial_left,greenBox.png,greenBox.png,blueBox.png,al2_uncon.png,30,19,NaN,NaN,0.15,0.15,0,1,0,0,Stable,Stable,1.252,1.193,0.853,2.681,inexpert
95,1671188799717,16/12/2022 11:06:39,1671188794484,0,16/12/2022 11:06:34,109680,37,task-qrxs,repeat-7g8d#1->-repeat-38fk#1->-repeat-qjz7#1->-repeat-5t6i#1,25988997,BLIND,7671893,NaN,complete,NaN,NaN,computer,Desktop or Laptop,Windows 10,Edge 108.0.1462.46,1280x720,1280x720,End of Day 1,SLS,90,A,Pass,End of Day 1,Pass,NaN,NaN,NaN,Pass,NaN,Pass,NaN,schedule_B,schedule_B,20,10,2,individual,Zone4,timelimit_screen,999.92300000001,NaN,NaN,,NaN,0,1,0,NaN,NaN,1,NaN,NaN,trial_left,greenBox.png,greenBox.png,blueBox.png,al2_uncon.png,30,19,NaN,NaN,0.15,0.15,0,1,0,0,Stable,Stable,1.252,1.193,0.853,2.681,inexpert
96,1671188800839,16/12/2022 11:06:40,1671188795604,0,16/12/2022 11:06:35,109680,37,task-qrxs,repeat-7g8d#1->-repeat-38fk#1->-repeat-qjz7#1->-repeat-5t6i#1,25988997,BLIND,7671893,NaN,complete,NaN,NaN,computer,Desktop or Laptop,Windows 10,Edge 108.0.1462.46,1280x720,1280x720,End of Day 1,SLS,90,A,Pass,End of Day 1,Pass,NaN,NaN,NaN,Pass,NaN,Pass,NaN,schedule_B,schedule_B,20,10,3,offer,bluebox,response_button_image,1115.80000000005,NaN,NaN,blueBox.png,1,0,1,0,NaN,NaN,NaN,NaN,NaN,trial_left,greenBox.png,greenBox.png,blueBox.png,al2_uncon.png,30,19,NaN,NaN,0.15,0.15,0,1,0,0,Stable,Stable,1.252,1.193,0.853,2.681,inexpert
97,1671188802833,16/12/2022 11:06:42,1671188797600,0,16/12/2022 11:06:37,109680,37,task-qrxs,repeat-7g8d#1->-repeat-38fk#1->-repeat-qjz7#1->-repeat-5t6i#1,25988997,BLIND,7671893,NaN,complete,NaN,NaN,computer,Desktop or Laptop,Windows 10,Edge 108.0.1462.46,1280x720,1280x720,End of Day 1,SLS,90,A,Pass,End of Day 1,Pass,NaN,NaN,NaN,Pass,NaN,Pass,NaN,schedule_B,schedule_B,20,10,5,feedback_r,Zone7,timelimit_screen,1999.38800000001,NaN,NaN,,NaN,0,1,0,NaN,NaN,1,NaN,NaN,trial_left,greenBox.png,greenBox.png,blueBox.png,al2_uncon.png,30,19,NaN,NaN,0.15,0.15,0,1,0,0,Stable,Stable,1.252,1.193,0.853,2.681,inexpert
98,1671188802983,16/12/2022 11:06:42,1671188797750,0,16/12/2022 11:06:37,109680,37,task-qrxs,repeat-7g8d#1->-repeat-38fk#1->-repeat-qjz7#1->-repeat-5t6i#1,25988997,BLIND,7671893,NaN,complete,NaN,NaN,computer,Desktop or Laptop,Windows 10,Edge 108.0.1462.46,1280x720,1280x720,End of Day 1,SLS,90,A,Pass,End of Day 1,Pass,NaN,NaN,NaN,Pass,NaN,Pass,NaN,schedule_B,schedule_B,20,10,6,end,Zone1,timelimit_screen,149.865999999995,NaN,NaN,,NaN,0,1,0,NaN,NaN,1,NaN,NaN,trial_left,greenBox.png,greenBox.png,blueBox.png,al2_uncon.png,30,19,NaN,NaN,0.15,0.15,0,1,0,0,Stable,Stable,1.252,1.193,0.853,2.681,inexpert
99,1671188804392,16/12/2022 11:06:44,1671188799160,0,16/12/2022 11:06:39,109680,37,task-qrxs,repeat-7g8d#1->-repeat-38fk#1->-repeat-qjz7#1->-repeat-5t6i#1,25988997,BLIND,7671893,NaN,complete,NaN,NaN,computer,Desktop or Laptop,Windows 10,Edge 108.0.1462.46,1280x720,1280x720,End of Day 1,SLS,90,A,Pass,End of Day 1,Pass,NaN,NaN,NaN,Pass,NaN,Pass,NaN,schedule_B,schedule_B,21,10,1,Screen 1,Zone1,continue_button,1401.80000000005,NaN,NaN,,NaN,0,1,0,NaN,NaN,NaN,NaN,NaN,trial_right,greenBox.png,greenBox.png,blueBox.png,al2_uncon.png,41,20,NaN,NaN,0.15,0.15,0,0,1,0,Stable,Stable,3.521,1.723,1.37,1.655,inexpert
100,1671188805397,16/12/2022 11:06:45,1671188800151,0,16/12/2022 11:06:40,109680,37,task-qrxs,repeat-7g8d#1->-repeat-38fk#1->-repeat-qjz7#1->-repeat-5t6i#1,25988997,BLIND,7671893,NaN,complete,NaN,NaN,computer,Desktop or Laptop,Windows 10,Edge 108.0.1462.46,1280x720,1280x720,End of Day 1,SLS,90,A,Pass,End of Day 1,Pass,NaN,NaN,NaN,Pass,NaN,Pass,NaN,schedule_B,schedule_B,21,10,2,individual,Zone4,timelimit_screen,999.853000000003,NaN,NaN,,NaN,0,1,0,NaN,NaN,1,NaN,NaN,trial_right,greenBox.png,greenBox.png,blueBox.png,al2_uncon.png,41,20,NaN,NaN,0.15,0.15,0,0,1,0,Stable,Stable,3.521,1.723,1.37,1.655,inexpert
101,1671188806104,16/12/2022 11:06:46,1671188800872,0,16/12/2022 11:06:40,109680,37,task-qrxs,repeat-7g8d#1->-repeat-38fk#1->-repeat-qjz7#1->-repeat-5t6i#1,25988997,BLIND,7671893,NaN,complete,NaN,NaN,computer,Desktop or Laptop,Windows 10,Edge 108.0.1462.46,1280x720,1280x720,End of Day 1,SLS,90,A,Pass,End of Day 1,Pass,NaN,NaN,NaN,Pass,NaN,Pass,NaN,schedule_B,schedule_B,21,10,3,offer,Zone3,response_button_image,716.5,NaN,NaN,blueBox.png,1,0,1,0,NaN,NaN,NaN,NaN,NaN,trial_right,greenBox.png,greenBox.png,blueBox.png,al2_uncon.png,41,20,NaN,NaN,0.15,0.15,0,0,1,0,Stable,Stable,3.521,1.723,1.37,1.655,inexpert
102,1671188808132,16/12/2022 11:06:48,1671188802869,0,16/12/2022 11:06:42,109680,37,task-qrxs,repeat-7g8d#1->-repeat-38fk#1->-repeat-qjz7#1->-repeat-5t6i#1,25988997,BLIND,7671893,NaN,complete,NaN,NaN,computer,Desktop or Laptop,Windows 10,Edge 108.0.1462.46,1280x720,1280x720,End of Day 1,SLS,90,A,Pass,End of Day 1,Pass,NaN,NaN,NaN,Pass,NaN,Pass,NaN,schedule_B,schedule_B,21,10,5,feedback_r,Zone7,timelimit_screen,2000.47,NaN,NaN,,NaN,0,1,0,NaN,NaN,1,NaN,NaN,trial_right,greenBox.png,greenBox.png,blueBox.png,al2_uncon.png,41,20,NaN,NaN,0.15,0.15,0,0,1,0,Stable,Stable,3.521,1.723,1.37,1.655,inexpert
103,1671188808248,16/12/2022 11:06:48,1671188803017,0,16/12/2022 11:06:43,109680,37,task-qrxs,repeat-7g8d#1->-repeat-38fk#1->-repeat-qjz7#1->-repeat-5t6i#1,25988997,BLIND,7671893,NaN,complete,NaN,NaN,computer,Desktop or Laptop,Windows 10,Edge 108.0.1462.46,1280x720,1280x720,End of Day 1,SLS,90,A,Pass,End of Day 1,Pass,NaN,NaN,NaN,Pass,NaN,Pass,NaN,schedule_B,schedule_B,21,10,6,end,Zone1,timelimit_screen,149.239000000001,NaN,NaN,,NaN,0,1,0,NaN,NaN,1,NaN,NaN,trial_right,greenBox.png,greenBox.png,blueBox.png,al2_uncon.png,41,20,NaN,NaN,0.15,0.15,0,0,1,0,Stable,Stable,3.521,1.723,1.37,1.655,inexpert
104,1671188809363,16/12/2022 11:06:49,1671188804058,0,16/12/2022 11:06:44,109680,37,task-qrxs,repeat-7g8d#1->-repeat-38fk#1->-repeat-qjz7#1->-repeat-5t6i#1,25988997,BLIND,7671893,NaN,complete,NaN,NaN,computer,Desktop or Laptop,Windows 10,Edge 108.0.1462.46,1280x720,1280x720,End of Day 1,SLS,90,A,Pass,End of Day 1,Pass,NaN,NaN,NaN,Pass,NaN,Pass,NaN,schedule_B,schedule_B,22,11,1,Screen 1,Zone1,continue_button,1017,NaN,NaN,,NaN,0,1,0,NaN,NaN,NaN,NaN,NaN,trial_left,blueBox.png,blueBox.png,greenBox.png,al2_uncon.png,42,21,NaN,NaN,0.85,0.15,1,1,1,1,Stable,Stable,2.336,0.651,1.685,2.882,inexpert
105,1671188810297,16/12/2022 11:06:50,1671188805058,0,16/12/2022 11:06:45,109680,37,task-qrxs,repeat-7g8d#1->-repeat-38fk#1->-repeat-qjz7#1->-repeat-5t6i#1,25988997,BLIND,7671893,NaN,complete,NaN,NaN,computer,Desktop or Laptop,Windows 10,Edge 108.0.1462.46,1280x720,1280x720,End of Day 1,SLS,90,A,Pass,End of Day 1,Pass,NaN,NaN,NaN,Pass,NaN,Pass,NaN,schedule_B,schedule_B,22,11,2,individual,Zone4,timelimit_screen,999.551999999996,NaN,NaN,,NaN,0,1,0,NaN,NaN,1,NaN,NaN,trial_left,blueBox.png,blueBox.png,greenBox.png,al2_uncon.png,42,21,NaN,NaN,0.85,0.15,1,1,1,1,Stable,Stable,2.336,0.651,1.685,2.882,inexpert
106,1671188811252,16/12/2022 11:06:51,1671188806019,0,16/12/2022 11:06:46,109680,37,task-qrxs,repeat-7g8d#1->-repeat-38fk#1->-repeat-qjz7#1->-repeat-5t6i#1,25988997,BLIND,7671893,NaN,complete,NaN,NaN,computer,Desktop or Laptop,Windows 10,Edge 108.0.1462.46,1280x720,1280x720,End of Day 1,SLS,90,A,Pass,End of Day 1,Pass,NaN,NaN,NaN,Pass,NaN,Pass,NaN,schedule_B,schedule_B,22,11,3,offer,bluebox,response_button_image,952.59999999986,NaN,NaN,greenBox.png,1,0,1,0,NaN,NaN,NaN,NaN,NaN,trial_left,blueBox.png,blueBox.png,greenBox.png,al2_uncon.png,42,21,NaN,NaN,0.85,0.15,1,1,1,1,Stable,Stable,2.336,0.651,1.685,2.882,inexpert
107,1671188813254,16/12/2022 11:06:53,1671188808017,0,16/12/2022 11:06:48,109680,37,task-qrxs,repeat-7g8d#1->-repeat-38fk#1->-repeat-qjz7#1->-repeat-5t6i#1,25988997,BLIND,7671893,NaN,complete,NaN,NaN,computer,Desktop or Laptop,Windows 10,Edge 108.0.1462.46,1280x720,1280x720,End of Day 1,SLS,90,A,Pass,End of Day 1,Pass,NaN,NaN,NaN,Pass,NaN,Pass,NaN,schedule_B,schedule_B,22,11,5,feedback_r,Zone7,timelimit_screen,1999.917,NaN,NaN,,NaN,0,1,0,NaN,NaN,1,NaN,NaN,trial_left,blueBox.png,blueBox.png,greenBox.png,al2_uncon.png,42,21,NaN,NaN,0.85,0.15,1,1,1,1,Stable,Stable,2.336,0.651,1.685,2.882,inexpert
108,1671188813401,16/12/2022 11:06:53,1671188808167,0,16/12/2022 11:06:48,109680,37,task-qrxs,repeat-7g8d#1->-repeat-38fk#1->-repeat-qjz7#1->-repeat-5t6i#1,25988997,BLIND,7671893,NaN,complete,NaN,NaN,computer,Desktop or Laptop,Windows 10,Edge 108.0.1462.46,1280x720,1280x720,End of Day 1,SLS,90,A,Pass,End of Day 1,Pass,NaN,NaN,NaN,Pass,NaN,Pass,NaN,schedule_B,schedule_B,22,11,6,end,Zone1,timelimit_screen,149.423999999999,NaN,NaN,,NaN,0,1,0,NaN,NaN,1,NaN,NaN,trial_left,blueBox.png,blueBox.png,greenBox.png,al2_uncon.png,42,21,NaN,NaN,0.85,0.15,1,1,1,1,Stable,Stable,2.336,0.651,1.685,2.882,inexpert
109,1671188814728,16/12/2022 11:06:54,1671188809492,0,16/12/2022 11:06:49,109680,37,task-qrxs,repeat-7g8d#1->-repeat-38fk#1->-repeat-qjz7#1->-repeat-5t6i#1,25988997,BLIND,7671893,NaN,complete,NaN,NaN,computer,Desktop or Laptop,Windows 10,Edge 108.0.1462.46,1280x720,1280x720,End of Day 1,SLS,90,A,Pass,End of Day 1,Pass,NaN,NaN,NaN,Pass,NaN,Pass,NaN,schedule_B,schedule_B,23,11,1,Screen 1,Zone1,continue_button,1309.09999999986,NaN,NaN,,NaN,0,1,0,NaN,NaN,NaN,NaN,NaN,trial_right,blueBox.png,blueBox.png,greenBox.png,al2_uncon.png,43,22,NaN,NaN,0.85,0.15,1,0,0,1,Stable,Stable,3.622,1.319,1.193,1.067,inexpert
110,1671188815722,16/12/2022 11:06:55,1671188810491,0,16/12/2022 11:06:50,109680,37,task-qrxs,repeat-7g8d#1->-repeat-38fk#1->-repeat-qjz7#1->-repeat-5t6i#1,25988997,BLIND,7671893,NaN,complete,NaN,NaN,computer,Desktop or Laptop,Windows 10,Edge 108.0.1462.46,1280x720,1280x720,End of Day 1,SLS,90,A,Pass,End of Day 1,Pass,NaN,NaN,NaN,Pass,NaN,Pass,NaN,schedule_B,schedule_B,23,11,2,individual,Zone4,timelimit_screen,1000.22499999999,NaN,NaN,,NaN,0,1,0,NaN,NaN,1,NaN,NaN,trial_right,blueBox.png,blueBox.png,greenBox.png,al2_uncon.png,43,22,NaN,NaN,0.85,0.15,1,0,0,1,Stable,Stable,3.622,1.319,1.193,1.067,inexpert
111,1671188816531,16/12/2022 11:06:56,1671188811299,0,16/12/2022 11:06:51,109680,37,task-qrxs,repeat-7g8d#1->-repeat-38fk#1->-repeat-qjz7#1->-repeat-5t6i#1,25988997,BLIND,7671893,NaN,complete,NaN,NaN,computer,Desktop or Laptop,Windows 10,Edge 108.0.1462.46,1280x720,1280x720,End of Day 1,SLS,90,A,Pass,End of Day 1,Pass,NaN,NaN,NaN,Pass,NaN,Pass,NaN,schedule_B,schedule_B,23,11,3,offer,Zone3,response_button_image,796.199999999953,NaN,NaN,greenBox.png,1,0,1,0,NaN,NaN,NaN,NaN,NaN,trial_right,blueBox.png,blueBox.png,greenBox.png,al2_uncon.png,43,22,NaN,NaN,0.85,0.15,1,0,0,1,Stable,Stable,3.622,1.319,1.193,1.067,inexpert
112,1671188818515,16/12/2022 11:06:58,1671188813283,0,16/12/2022 11:06:53,109680,37,task-qrxs,repeat-7g8d#1->-repeat-38fk#1->-repeat-qjz7#1->-repeat-5t6i#1,25988997,BLIND,7671893,NaN,complete,NaN,NaN,computer,Desktop or Laptop,Windows 10,Edge 108.0.1462.46,1280x720,1280x720,End of Day 1,SLS,90,A,Pass,End of Day 1,Pass,NaN,NaN,NaN,Pass,NaN,Pass,NaN,schedule_B,schedule_B,23,11,5,feedback_r,Zone7,timelimit_screen,2000.414,NaN,NaN,,NaN,0,1,0,NaN,NaN,1,NaN,NaN,trial_right,blueBox.png,blueBox.png,greenBox.png,al2_uncon.png,43,22,NaN,NaN,0.85,0.15,1,0,0,1,Stable,Stable,3.622,1.319,1.193,1.067,inexpert
113,1671188818663,16/12/2022 11:06:58,1671188813433,0,16/12/2022 11:06:53,109680,37,task-qrxs,repeat-7g8d#1->-repeat-38fk#1->-repeat-qjz7#1->-repeat-5t6i#1,25988997,BLIND,7671893,NaN,complete,NaN,NaN,computer,Desktop or Laptop,Windows 10,Edge 108.0.1462.46,1280x720,1280x720,End of Day 1,SLS,90,A,Pass,End of Day 1,Pass,NaN,NaN,NaN,Pass,NaN,Pass,NaN,schedule_B,schedule_B,23,11,6,end,Zone1,timelimit_screen,149.854999999996,NaN,NaN,,NaN,0,1,0,NaN,NaN,1,NaN,NaN,trial_right,blueBox.png,blueBox.png,greenBox.png,al2_uncon.png,43,22,NaN,NaN,0.85,0.15,1,0,0,1,Stable,Stable,3.622,1.319,1.193,1.067,inexpert
114,1671188819686,16/12/2022 11:06:59,1671188814458,0,16/12/2022 11:06:54,109680,37,task-qrxs,repeat-7g8d#1->-repeat-38fk#1->-repeat-qjz7#1->-repeat-5t6i#1,25988997,BLIND,7671893,NaN,complete,NaN,NaN,computer,Desktop or Laptop,Windows 10,Edge 108.0.1462.46,1280x720,1280x720,End of Day 1,SLS,90,A,Pass,End of Day 1,Pass,NaN,NaN,NaN,Pass,NaN,Pass,NaN,schedule_B,schedule_B,24,12,1,Screen 1,Zone1,continue_button,1009.69999999995,NaN,NaN,,NaN,0,1,0,NaN,NaN,NaN,NaN,NaN,trial_left,blueBox.png,greenBox.png,blueBox.png,al2_uncon.png,44,23,NaN,NaN,0.85,0.15,1,0,0,0,Stable,Stable,1.731,0.853,2,1.202,inexpert
115,1671188820679,16/12/2022 11:07:00,1671188815448,0,16/12/2022 11:06:55,109680,37,task-qrxs,repeat-7g8d#1->-repeat-38fk#1->-repeat-qjz7#1->-repeat-5t6i#1,25988997,BLIND,7671893,NaN,complete,NaN,NaN,computer,Desktop or Laptop,Windows 10,Edge 108.0.1462.46,1280x720,1280x720,End of Day 1,SLS,90,A,Pass,End of Day 1,Pass,NaN,NaN,NaN,Pass,NaN,Pass,NaN,schedule_B,schedule_B,24,12,2,individual,Zone4,timelimit_screen,999.880999999994,NaN,NaN,,NaN,0,1,0,NaN,NaN,1,NaN,NaN,trial_left,blueBox.png,greenBox.png,blueBox.png,al2_uncon.png,44,23,NaN,NaN,0.85,0.15,1,0,0,0,Stable,Stable,1.731,0.853,2,1.202,inexpert
116,1671188821540,16/12/2022 11:07:01,1671188816309,0,16/12/2022 11:06:56,109680,37,task-qrxs,repeat-7g8d#1->-repeat-38fk#1->-repeat-qjz7#1->-repeat-5t6i#1,25988997,BLIND,7671893,NaN,complete,NaN,NaN,computer,Desktop or Laptop,Windows 10,Edge 108.0.1462.46,1280x720,1280x720,End of Day 1,SLS,90,A,Pass,End of Day 1,Pass,NaN,NaN,NaN,Pass,NaN,Pass,NaN,schedule_B,schedule_B,24,12,3,offer,bluebox,response_button_image,850,NaN,NaN,blueBox.png,1,1,0,0,NaN,NaN,NaN,NaN,NaN,trial_left,blueBox.png,greenBox.png,blueBox.png,al2_uncon.png,44,23,NaN,NaN,0.85,0.15,1,0,0,0,Stable,Stable,1.731,0.853,2,1.202,inexpert
117,1671188823529,16/12/2022 11:07:03,1671188818298,0,16/12/2022 11:06:58,109680,37,task-qrxs,repeat-7g8d#1->-repeat-38fk#1->-repeat-qjz7#1->-repeat-5t6i#1,25988997,BLIND,7671893,NaN,complete,NaN,NaN,computer,Desktop or Laptop,Windows 10,Edge 108.0.1462.46,1280x720,1280x720,End of Day 1,SLS,90,A,Pass,End of Day 1,Pass,NaN,NaN,NaN,Pass,NaN,Pass,NaN,schedule_B,schedule_B,24,12,5,feedback_r,Zone7,timelimit_screen,1999.742,NaN,NaN,,NaN,0,1,0,NaN,NaN,1,NaN,NaN,trial_left,blueBox.png,greenBox.png,blueBox.png,al2_uncon.png,44,23,NaN,NaN,0.85,0.15,1,0,0,0,Stable,Stable,1.731,0.853,2,1.202,inexpert
118,1671188823679,16/12/2022 11:07:03,1671188818449,0,16/12/2022 11:06:58,109680,37,task-qrxs,repeat-7g8d#1->-repeat-38fk#1->-repeat-qjz7#1->-repeat-5t6i#1,25988997,BLIND,7671893,NaN,complete,NaN,NaN,computer,Desktop or Laptop,Windows 10,Edge 108.0.1462.46,1280x720,1280x720,End of Day 1,SLS,90,A,Pass,End of Day 1,Pass,NaN,NaN,NaN,Pass,NaN,Pass,NaN,schedule_B,schedule_B,24,12,6,end,Zone1,timelimit_screen,150.56700000001,NaN,NaN,,NaN,0,1,0,NaN,NaN,1,NaN,NaN,trial_left,blueBox.png,greenBox.png,blueBox.png,al2_uncon.png,44,23,NaN,NaN,0.85,0.15,1,0,0,0,Stable,Stable,1.731,0.853,2,1.202,inexpert
119,1671188824477,16/12/2022 11:07:04,1671188819245,0,16/12/2022 11:06:59,109680,37,task-qrxs,repeat-7g8d#1->-repeat-38fk#1->-repeat-qjz7#1->-repeat-5t6i#1,25988997,BLIND,7671893,NaN,complete,NaN,NaN,computer,Desktop or Laptop,Windows 10,Edge 108.0.1462.46,1280x720,1280x720,End of Day 1,SLS,90,A,Pass,End of Day 1,Pass,NaN,NaN,NaN,Pass,NaN,Pass,NaN,schedule_B,schedule_B,25,13,1,Screen 1,Zone1,continue_button,785.40000000014,NaN,NaN,,NaN,0,1,0,NaN,NaN,NaN,NaN,NaN,trial_left,blueBox.png,blueBox.png,greenBox.png,al2_uncon.png,45,24,NaN,NaN,0.85,0.15,1,1,1,1,Stable,Stable,2.109,1.798,1.508,2.782,inexpert
120,1671188825467,16/12/2022 11:07:05,1671188820231,0,16/12/2022 11:07:00,109680,37,task-qrxs,repeat-7g8d#1->-repeat-38fk#1->-repeat-qjz7#1->-repeat-5t6i#1,25988997,BLIND,7671893,NaN,complete,NaN,NaN,computer,Desktop or Laptop,Windows 10,Edge 108.0.1462.46,1280x720,1280x720,End of Day 1,SLS,90,A,Pass,End of Day 1,Pass,NaN,NaN,NaN,Pass,NaN,Pass,NaN,schedule_B,schedule_B,25,13,2,individual,Zone4,timelimit_screen,999.895000000004,NaN,NaN,,NaN,0,1,0,NaN,NaN,1,NaN,NaN,trial_left,blueBox.png,blueBox.png,greenBox.png,al2_uncon.png,45,24,NaN,NaN,0.85,0.15,1,1,1,1,Stable,Stable,2.109,1.798,1.508,2.782,inexpert
121,1671188826269,16/12/2022 11:07:06,1671188821038,0,16/12/2022 11:07:01,109680,37,task-qrxs,repeat-7g8d#1->-repeat-38fk#1->-repeat-qjz7#1->-repeat-5t6i#1,25988997,BLIND,7671893,NaN,complete,NaN,NaN,computer,Desktop or Laptop,Windows 10,Edge 108.0.1462.46,1280x720,1280x720,End of Day 1,SLS,90,A,Pass,End of Day 1,Pass,NaN,NaN,NaN,Pass,NaN,Pass,NaN,schedule_B,schedule_B,25,13,3,offer,Zone2,response_button_image,798.199999999953,NaN,NaN,blueBox.png,1,1,0,0,NaN,NaN,NaN,NaN,NaN,trial_left,blueBox.png,blueBox.png,greenBox.png,al2_uncon.png,45,24,NaN,NaN,0.85,0.15,1,1,1,1,Stable,Stable,2.109,1.798,1.508,2.782,inexpert
122,1671188828267,16/12/2022 11:07:08,1671188823032,0,16/12/2022 11:07:03,109680,37,task-qrxs,repeat-7g8d#1->-repeat-38fk#1->-repeat-qjz7#1->-repeat-5t6i#1,25988997,BLIND,7671893,NaN,complete,NaN,NaN,computer,Desktop or Laptop,Windows 10,Edge 108.0.1462.46,1280x720,1280x720,End of Day 1,SLS,90,A,Pass,End of Day 1,Pass,NaN,NaN,NaN,Pass,NaN,Pass,NaN,schedule_B,schedule_B,25,13,4,feedback_l,Zone7,timelimit_screen,1998.97500000001,NaN,NaN,,NaN,0,1,0,NaN,NaN,1,NaN,NaN,trial_left,blueBox.png,blueBox.png,greenBox.png,al2_uncon.png,45,24,NaN,NaN,0.85,0.15,1,1,1,1,Stable,Stable,2.109,1.798,1.508,2.782,inexpert
123,1671188828413,16/12/2022 11:07:08,1671188823181,0,16/12/2022 11:07:03,109680,37,task-qrxs,repeat-7g8d#1->-repeat-38fk#1->-repeat-qjz7#1->-repeat-5t6i#1,25988997,BLIND,7671893,NaN,complete,NaN,NaN,computer,Desktop or Laptop,Windows 10,Edge 108.0.1462.46,1280x720,1280x720,End of Day 1,SLS,90,A,Pass,End of Day 1,Pass,NaN,NaN,NaN,Pass,NaN,Pass,NaN,schedule_B,schedule_B,25,13,6,end,Zone1,timelimit_screen,150.085999999981,NaN,NaN,,NaN,0,1,0,NaN,NaN,1,NaN,NaN,trial_left,blueBox.png,blueBox.png,greenBox.png,al2_uncon.png,45,24,NaN,NaN,0.85,0.15,1,1,1,1,Stable,Stable,2.109,1.798,1.508,2.782,inexpert
124,1671188829728,16/12/2022 11:07:09,1671188824495,0,16/12/2022 11:07:04,109680,37,task-qrxs,repeat-7g8d#1->-repeat-38fk#1->-repeat-qjz7#1->-repeat-5t6i#1,25988997,BLIND,7671893,NaN,complete,NaN,NaN,computer,Desktop or Laptop,Windows 10,Edge 108.0.1462.46,1280x720,1280x720,End of Day 1,SLS,90,A,Pass,End of Day 1,Pass,NaN,NaN,NaN,Pass,NaN,Pass,NaN,schedule_B,schedule_B,26,12,1,Screen 1,Zone1,continue_button,1300.19999999995,NaN,NaN,,NaN,0,1,0,NaN,NaN,NaN,NaN,NaN,trial_right,blueBox.png,greenBox.png,blueBox.png,al2_uncon.png,46,25,NaN,NaN,0.85,0.15,1,1,1,0,Stable,Stable,2.916,1.294,1.962,2.361,inexpert
125,1671188830713,16/12/2022 11:07:10,1671188825481,0,16/12/2022 11:07:05,109680,37,task-qrxs,repeat-7g8d#1->-repeat-38fk#1->-repeat-qjz7#1->-repeat-5t6i#1,25988997,BLIND,7671893,NaN,complete,NaN,NaN,computer,Desktop or Laptop,Windows 10,Edge 108.0.1462.46,1280x720,1280x720,End of Day 1,SLS,90,A,Pass,End of Day 1,Pass,NaN,NaN,NaN,Pass,NaN,Pass,NaN,schedule_B,schedule_B,26,12,2,individual,Zone4,timelimit_screen,999.706999999995,NaN,NaN,,NaN,0,1,0,NaN,NaN,1,NaN,NaN,trial_right,blueBox.png,greenBox.png,blueBox.png,al2_uncon.png,46,25,NaN,NaN,0.85,0.15,1,1,1,0,Stable,Stable,2.916,1.294,1.962,2.361,inexpert
126,1671188831554,16/12/2022 11:07:11,1671188826321,0,16/12/2022 11:07:06,109680,37,task-qrxs,repeat-7g8d#1->-repeat-38fk#1->-repeat-qjz7#1->-repeat-5t6i#1,25988997,BLIND,7671893,NaN,complete,NaN,NaN,computer,Desktop or Laptop,Windows 10,Edge 108.0.1462.46,1280x720,1280x720,End of Day 1,SLS,90,A,Pass,End of Day 1,Pass,NaN,NaN,NaN,Pass,NaN,Pass,NaN,schedule_B,schedule_B,26,12,3,offer,Zone3,response_button_image,830.300000000047,NaN,NaN,blueBox.png,1,1,0,0,NaN,NaN,NaN,NaN,NaN,trial_right,blueBox.png,greenBox.png,blueBox.png,al2_uncon.png,46,25,NaN,NaN,0.85,0.15,1,1,1,0,Stable,Stable,2.916,1.294,1.962,2.361,inexpert
127,1671188833549,16/12/2022 11:07:13,1671188828314,0,16/12/2022 11:07:08,109680,37,task-qrxs,repeat-7g8d#1->-repeat-38fk#1->-repeat-qjz7#1->-repeat-5t6i#1,25988997,BLIND,7671893,NaN,complete,NaN,NaN,computer,Desktop or Laptop,Windows 10,Edge 108.0.1462.46,1280x720,1280x720,End of Day 1,SLS,90,A,Pass,End of Day 1,Pass,NaN,NaN,NaN,Pass,NaN,Pass,NaN,schedule_B,schedule_B,26,12,5,feedback_r,Zone7,timelimit_screen,2000.06599999999,NaN,NaN,,NaN,0,1,0,NaN,NaN,1,NaN,NaN,trial_right,blueBox.png,greenBox.png,blueBox.png,al2_uncon.png,46,25,NaN,NaN,0.85,0.15,1,1,1,0,Stable,Stable,2.916,1.294,1.962,2.361,inexpert
128,1671188833700,16/12/2022 11:07:13,1671188828463,0,16/12/2022 11:07:08,109680,37,task-qrxs,repeat-7g8d#1->-repeat-38fk#1->-repeat-qjz7#1->-repeat-5t6i#1,25988997,BLIND,7671893,NaN,complete,NaN,NaN,computer,Desktop or Laptop,Windows 10,Edge 108.0.1462.46,1280x720,1280x720,End of Day 1,SLS,90,A,Pass,End of Day 1,Pass,NaN,NaN,NaN,Pass,NaN,Pass,NaN,schedule_B,schedule_B,26,12,6,end,Zone1,timelimit_screen,149.57699999999,NaN,NaN,,NaN,0,1,0,NaN,NaN,1,NaN,NaN,trial_right,blueBox.png,greenBox.png,blueBox.png,al2_uncon.png,46,25,NaN,NaN,0.85,0.15,1,1,1,0,Stable,Stable,2.916,1.294,1.962,2.361,inexpert
129,1671188835012,16/12/2022 11:07:15,1671188829778,0,16/12/2022 11:07:09,109680,37,task-qrxs,repeat-7g8d#1->-repeat-38fk#1->-repeat-qjz7#1->-repeat-5t6i#1,25988997,BLIND,7671893,NaN,complete,NaN,NaN,computer,Desktop or Laptop,Windows 10,Edge 108.0.1462.46,1280x720,1280x720,End of Day 1,SLS,90,A,Pass,End of Day 1,Pass,NaN,NaN,NaN,Pass,NaN,Pass,NaN,schedule_B,schedule_B,27,13,1,Screen 1,Zone1,continue_button,1300.90000000014,NaN,NaN,,NaN,0,1,0,NaN,NaN,NaN,NaN,NaN,trial_right,blueBox.png,blueBox.png,greenBox.png,al2_uncon.png,47,26,NaN,NaN,0.85,0.15,1,0,0,1,Stable,Stable,2.487,1.697,1.13,1.286,inexpert
130,1671188835995,16/12/2022 11:07:15,1671188830764,0,16/12/2022 11:07:10,109680,37,task-qrxs,repeat-7g8d#1->-repeat-38fk#1->-repeat-qjz7#1->-repeat-5t6i#1,25988997,BLIND,7671893,NaN,complete,NaN,NaN,computer,Desktop or Laptop,Windows 10,Edge 108.0.1462.46,1280x720,1280x720,End of Day 1,SLS,90,A,Pass,End of Day 1,Pass,NaN,NaN,NaN,Pass,NaN,Pass,NaN,schedule_B,schedule_B,27,13,2,individual,Zone4,timelimit_screen,999.904999999999,NaN,NaN,,NaN,0,1,0,NaN,NaN,1,NaN,NaN,trial_right,blueBox.png,blueBox.png,greenBox.png,al2_uncon.png,47,26,NaN,NaN,0.85,0.15,1,0,0,1,Stable,Stable,2.487,1.697,1.13,1.286,inexpert
131,1671188836880,16/12/2022 11:07:16,1671188831641,0,16/12/2022 11:07:11,109680,37,task-qrxs,repeat-7g8d#1->-repeat-38fk#1->-repeat-qjz7#1->-repeat-5t6i#1,25988997,BLIND,7671893,NaN,complete,NaN,NaN,computer,Desktop or Laptop,Windows 10,Edge 108.0.1462.46,1280x720,1280x720,End of Day 1,SLS,90,A,Pass,End of Day 1,Pass,NaN,NaN,NaN,Pass,NaN,Pass,NaN,schedule_B,schedule_B,27,13,3,offer,Zone2,response_button_image,866.600000000093,NaN,NaN,blueBox.png,1,1,0,0,NaN,NaN,NaN,NaN,NaN,trial_right,blueBox.png,blueBox.png,greenBox.png,al2_uncon.png,47,26,NaN,NaN,0.85,0.15,1,0,0,1,Stable,Stable,2.487,1.697,1.13,1.286,inexpert
132,1671188838860,16/12/2022 11:07:18,1671188833631,0,16/12/2022 11:07:13,109680,37,task-qrxs,repeat-7g8d#1->-repeat-38fk#1->-repeat-qjz7#1->-repeat-5t6i#1,25988997,BLIND,7671893,NaN,complete,NaN,NaN,computer,Desktop or Laptop,Windows 10,Edge 108.0.1462.46,1280x720,1280x720,End of Day 1,SLS,90,A,Pass,End of Day 1,Pass,NaN,NaN,NaN,Pass,NaN,Pass,NaN,schedule_B,schedule_B,27,13,4,feedback_l,Zone7,timelimit_screen,2000.06,NaN,NaN,,NaN,0,1,0,NaN,NaN,1,NaN,NaN,trial_right,blueBox.png,blueBox.png,greenBox.png,al2_uncon.png,47,26,NaN,NaN,0.85,0.15,1,0,0,1,Stable,Stable,2.487,1.697,1.13,1.286,inexpert
133,1671188839011,16/12/2022 11:07:19,1671188833780,0,16/12/2022 11:07:13,109680,37,task-qrxs,repeat-7g8d#1->-repeat-38fk#1->-repeat-qjz7#1->-repeat-5t6i#1,25988997,BLIND,7671893,NaN,complete,NaN,NaN,computer,Desktop or Laptop,Windows 10,Edge 108.0.1462.46,1280x720,1280x720,End of Day 1,SLS,90,A,Pass,End of Day 1,Pass,NaN,NaN,NaN,Pass,NaN,Pass,NaN,schedule_B,schedule_B,27,13,6,end,Zone1,timelimit_screen,149.5,NaN,NaN,,NaN,0,1,0,NaN,NaN,1,NaN,NaN,trial_right,blueBox.png,blueBox.png,greenBox.png,al2_uncon.png,47,26,NaN,NaN,0.85,0.15,1,0,0,1,Stable,Stable,2.487,1.697,1.13,1.286,inexpert
134,1671188839978,16/12/2022 11:07:19,1671188834748,0,16/12/2022 11:07:14,109680,37,task-qrxs,repeat-7g8d#1->-repeat-38fk#1->-repeat-qjz7#1->-repeat-5t6i#1,25988997,BLIND,7671893,NaN,complete,NaN,NaN,computer,Desktop or Laptop,Windows 10,Edge 108.0.1462.46,1280x720,1280x720,End of Day 1,SLS,90,A,Pass,End of Day 1,Pass,NaN,NaN,NaN,Pass,NaN,Pass,NaN,schedule_B,schedule_B,28,14,1,Screen 1,Zone1,continue_button,953.09999999986,NaN,NaN,,NaN,0,1,0,NaN,NaN,NaN,NaN,NaN,trial_left,blueBox.png,greenBox.png,blueBox.png,al2_uncon.png,48,27,NaN,NaN,0.85,0.15,1,0,0,0,Stable,Stable,3.824,1.634,0.992,2.244,inexpert
135,1671188840960,16/12/2022 11:07:20,1671188835731,0,16/12/2022 11:07:15,109680,37,task-qrxs,repeat-7g8d#1->-repeat-38fk#1->-repeat-qjz7#1->-repeat-5t6i#1,25988997,BLIND,7671893,NaN,complete,NaN,NaN,computer,Desktop or Laptop,Windows 10,Edge 108.0.1462.46,1280x720,1280x720,End of Day 1,SLS,90,A,Pass,End of Day 1,Pass,NaN,NaN,NaN,Pass,NaN,Pass,NaN,schedule_B,schedule_B,28,14,2,individual,Zone4,timelimit_screen,1000.04199999999,NaN,NaN,,NaN,0,1,0,NaN,NaN,1,NaN,NaN,trial_left,blueBox.png,greenBox.png,blueBox.png,al2_uncon.png,48,27,NaN,NaN,0.85,0.15,1,0,0,0,Stable,Stable,3.824,1.634,0.992,2.244,inexpert
136,1671188841747,16/12/2022 11:07:21,1671188836510,0,16/12/2022 11:07:16,109680,37,task-qrxs,repeat-7g8d#1->-repeat-38fk#1->-repeat-qjz7#1->-repeat-5t6i#1,25988997,BLIND,7671893,NaN,complete,NaN,NaN,computer,Desktop or Laptop,Windows 10,Edge 108.0.1462.46,1280x720,1280x720,End of Day 1,SLS,90,A,Pass,End of Day 1,Pass,NaN,NaN,NaN,Pass,NaN,Pass,NaN,schedule_B,schedule_B,28,14,3,offer,bluebox,response_button_image,769.199999999953,NaN,NaN,blueBox.png,1,1,0,0,NaN,NaN,NaN,NaN,NaN,trial_left,blueBox.png,greenBox.png,blueBox.png,al2_uncon.png,48,27,NaN,NaN,0.85,0.15,1,0,0,0,Stable,Stable,3.824,1.634,0.992,2.244,inexpert
137,1671188843730,16/12/2022 11:07:23,1671188838496,0,16/12/2022 11:07:18,109680,37,task-qrxs,repeat-7g8d#1->-repeat-38fk#1->-repeat-qjz7#1->-repeat-5t6i#1,25988997,BLIND,7671893,NaN,complete,NaN,NaN,computer,Desktop or Laptop,Windows 10,Edge 108.0.1462.46,1280x720,1280x720,End of Day 1,SLS,90,A,Pass,End of Day 1,Pass,NaN,NaN,NaN,Pass,NaN,Pass,NaN,schedule_B,schedule_B,28,14,5,feedback_r,Zone7,timelimit_screen,1999.731,NaN,NaN,,NaN,0,1,0,NaN,NaN,1,NaN,NaN,trial_left,blueBox.png,greenBox.png,blueBox.png,al2_uncon.png,48,27,NaN,NaN,0.85,0.15,1,0,0,0,Stable,Stable,3.824,1.634,0.992,2.244,inexpert
138,1671188843885,16/12/2022 11:07:23,1671188838645,0,16/12/2022 11:07:18,109680,37,task-qrxs,repeat-7g8d#1->-repeat-38fk#1->-repeat-qjz7#1->-repeat-5t6i#1,25988997,BLIND,7671893,NaN,complete,NaN,NaN,computer,Desktop or Laptop,Windows 10,Edge 108.0.1462.46,1280x720,1280x720,End of Day 1,SLS,90,A,Pass,End of Day 1,Pass,NaN,NaN,NaN,Pass,NaN,Pass,NaN,schedule_B,schedule_B,28,14,6,end,Zone1,timelimit_screen,149.545000000013,NaN,NaN,,NaN,0,1,0,NaN,NaN,1,NaN,NaN,trial_left,blueBox.png,greenBox.png,blueBox.png,al2_uncon.png,48,27,NaN,NaN,0.85,0.15,1,0,0,0,Stable,Stable,3.824,1.634,0.992,2.244,inexpert
139,1671188844898,16/12/2022 11:07:24,1671188839660,0,16/12/2022 11:07:19,109680,37,task-qrxs,repeat-7g8d#1->-repeat-38fk#1->-repeat-qjz7#1->-repeat-5t6i#1,25988997,BLIND,7671893,NaN,complete,NaN,NaN,computer,Desktop or Laptop,Windows 10,Edge 108.0.1462.46,1280x720,1280x720,End of Day 1,SLS,90,A,Pass,End of Day 1,Pass,NaN,NaN,NaN,Pass,NaN,Pass,NaN,schedule_B,schedule_B,29,14,1,Screen 1,Zone1,continue_button,1000.80000000005,NaN,NaN,,NaN,0,1,0,NaN,NaN,NaN,NaN,NaN,trial_right,blueBox.png,blueBox.png,greenBox.png,al2_uncon.png,49,28,NaN,NaN,0.85,0.15,1,0,0,1,Stable,Stable,2.84,1.937,1.723,2.815,inexpert
140,1671188845879,16/12/2022 11:07:25,1671188840645,0,16/12/2022 11:07:20,109680,37,task-qrxs,repeat-7g8d#1->-repeat-38fk#1->-repeat-qjz7#1->-repeat-5t6i#1,25988997,BLIND,7671893,NaN,complete,NaN,NaN,computer,Desktop or Laptop,Windows 10,Edge 108.0.1462.46,1280x720,1280x720,End of Day 1,SLS,90,A,Pass,End of Day 1,Pass,NaN,NaN,NaN,Pass,NaN,Pass,NaN,schedule_B,schedule_B,29,14,2,individual,Zone4,timelimit_screen,999.535000000003,NaN,NaN,,NaN,0,1,0,NaN,NaN,1,NaN,NaN,trial_right,blueBox.png,blueBox.png,greenBox.png,al2_uncon.png,49,28,NaN,NaN,0.85,0.15,1,0,0,1,Stable,Stable,2.84,1.937,1.723,2.815,inexpert
141,1671188846709,16/12/2022 11:07:26,1671188841479,0,16/12/2022 11:07:21,109680,37,task-qrxs,repeat-7g8d#1->-repeat-38fk#1->-repeat-qjz7#1->-repeat-5t6i#1,25988997,BLIND,7671893,NaN,complete,NaN,NaN,computer,Desktop or Laptop,Windows 10,Edge 108.0.1462.46,1280x720,1280x720,End of Day 1,SLS,90,A,Pass,End of Day 1,Pass,NaN,NaN,NaN,Pass,NaN,Pass,NaN,schedule_B,schedule_B,29,14,3,offer,Zone2,response_button_image,827.5,NaN,NaN,blueBox.png,1,1,0,0,NaN,NaN,NaN,NaN,NaN,trial_right,blueBox.png,blueBox.png,greenBox.png,al2_uncon.png,49,28,NaN,NaN,0.85,0.15,1,0,0,1,Stable,Stable,2.84,1.937,1.723,2.815,inexpert
142,1671188848707,16/12/2022 11:07:28,1671188843477,0,16/12/2022 11:07:23,109680,37,task-qrxs,repeat-7g8d#1->-repeat-38fk#1->-repeat-qjz7#1->-repeat-5t6i#1,25988997,BLIND,7671893,NaN,complete,NaN,NaN,computer,Desktop or Laptop,Windows 10,Edge 108.0.1462.46,1280x720,1280x720,End of Day 1,SLS,90,A,Pass,End of Day 1,Pass,NaN,NaN,NaN,Pass,NaN,Pass,NaN,schedule_B,schedule_B,29,14,4,feedback_l,Zone7,timelimit_screen,1999.79300000001,NaN,NaN,,NaN,0,1,0,NaN,NaN,1,NaN,NaN,trial_right,blueBox.png,blueBox.png,greenBox.png,al2_uncon.png,49,28,NaN,NaN,0.85,0.15,1,0,0,1,Stable,Stable,2.84,1.937,1.723,2.815,inexpert
143,1671188848857,16/12/2022 11:07:28,1671188843627,0,16/12/2022 11:07:23,109680,37,task-qrxs,repeat-7g8d#1->-repeat-38fk#1->-repeat-qjz7#1->-repeat-5t6i#1,25988997,BLIND,7671893,NaN,complete,NaN,NaN,computer,Desktop or Laptop,Windows 10,Edge 108.0.1462.46,1280x720,1280x720,End of Day 1,SLS,90,A,Pass,End of Day 1,Pass,NaN,NaN,NaN,Pass,NaN,Pass,NaN,schedule_B,schedule_B,29,14,6,end,Zone1,timelimit_screen,150.011999999988,NaN,NaN,,NaN,0,1,0,NaN,NaN,1,NaN,NaN,trial_right,blueBox.png,blueBox.png,greenBox.png,al2_uncon.png,49,28,NaN,NaN,0.85,0.15,1,0,0,1,Stable,Stable,2.84,1.937,1.723,2.815,inexpert
144,1671188849741,16/12/2022 11:07:29,1671188844511,0,16/12/2022 11:07:24,109680,37,task-qrxs,repeat-7g8d#1->-repeat-38fk#1->-repeat-qjz7#1->-repeat-5t6i#1,25988997,BLIND,7671893,NaN,complete,NaN,NaN,computer,Desktop or Laptop,Windows 10,Edge 108.0.1462.46,1280x720,1280x720,End of Day 1,SLS,90,A,Pass,End of Day 1,Pass,NaN,NaN,NaN,Pass,NaN,Pass,NaN,schedule_B,schedule_B,30,15,1,Screen 1,Zone1,continue_button,875.90000000014,NaN,NaN,,NaN,0,1,0,NaN,NaN,NaN,NaN,NaN,trial_right,blueBox.png,blueBox.png,greenBox.png,al2_uncon.png,50,29,NaN,NaN,0.85,0.15,1,0,0,1,Stable,Stable,2.941,1.71,0.664,1.336,inexpert
145,1671188850747,16/12/2022 11:07:30,1671188845510,0,16/12/2022 11:07:25,109680,37,task-qrxs,repeat-7g8d#1->-repeat-38fk#1->-repeat-qjz7#1->-repeat-5t6i#1,25988997,BLIND,7671893,NaN,complete,NaN,NaN,computer,Desktop or Laptop,Windows 10,Edge 108.0.1462.46,1280x720,1280x720,End of Day 1,SLS,90,A,Pass,End of Day 1,Pass,NaN,NaN,NaN,Pass,NaN,Pass,NaN,schedule_B,schedule_B,30,15,2,individual,Zone4,timelimit_screen,999.849000000017,NaN,NaN,,NaN,0,1,0,NaN,NaN,1,NaN,NaN,trial_right,blueBox.png,blueBox.png,greenBox.png,al2_uncon.png,50,29,NaN,NaN,0.85,0.15,1,0,0,1,Stable,Stable,2.941,1.71,0.664,1.336,inexpert
146,1671188851389,16/12/2022 11:07:31,1671188846161,0,16/12/2022 11:07:26,109680,37,task-qrxs,repeat-7g8d#1->-repeat-38fk#1->-repeat-qjz7#1->-repeat-5t6i#1,25988997,BLIND,7671893,NaN,complete,NaN,NaN,computer,Desktop or Laptop,Windows 10,Edge 108.0.1462.46,1280x720,1280x720,End of Day 1,SLS,90,A,Pass,End of Day 1,Pass,NaN,NaN,NaN,Pass,NaN,Pass,NaN,schedule_B,schedule_B,30,15,3,offer,Zone2,response_button_image,646.699999999953,NaN,NaN,blueBox.png,1,1,0,0,NaN,NaN,NaN,NaN,NaN,trial_right,blueBox.png,blueBox.png,greenBox.png,al2_uncon.png,50,29,NaN,NaN,0.85,0.15,1,0,0,1,Stable,Stable,2.941,1.71,0.664,1.336,inexpert
147,1671188853399,16/12/2022 11:07:33,1671188848171,0,16/12/2022 11:07:28,109680,37,task-qrxs,repeat-7g8d#1->-repeat-38fk#1->-repeat-qjz7#1->-repeat-5t6i#1,25988997,BLIND,7671893,NaN,complete,NaN,NaN,computer,Desktop or Laptop,Windows 10,Edge 108.0.1462.46,1280x720,1280x720,End of Day 1,SLS,90,A,Pass,End of Day 1,Pass,NaN,NaN,NaN,Pass,NaN,Pass,NaN,schedule_B,schedule_B,30,15,4,feedback_l,Zone7,timelimit_screen,1999.712,NaN,NaN,,NaN,0,1,0,NaN,NaN,1,NaN,NaN,trial_right,blueBox.png,blueBox.png,greenBox.png,al2_uncon.png,50,29,NaN,NaN,0.85,0.15,1,0,0,1,Stable,Stable,2.941,1.71,0.664,1.336,inexpert
148,1671188853540,16/12/2022 11:07:33,1671188848313,0,16/12/2022 11:07:28,109680,37,task-qrxs,repeat-7g8d#1->-repeat-38fk#1->-repeat-qjz7#1->-repeat-5t6i#1,25988997,BLIND,7671893,NaN,complete,NaN,NaN,computer,Desktop or Laptop,Windows 10,Edge 108.0.1462.46,1280x720,1280x720,End of Day 1,SLS,90,A,Pass,End of Day 1,Pass,NaN,NaN,NaN,Pass,NaN,Pass,NaN,schedule_B,schedule_B,30,15,6,end,Zone1,timelimit_screen,150.060999999987,NaN,NaN,,NaN,0,1,0,NaN,NaN,1,NaN,NaN,trial_right,blueBox.png,blueBox.png,greenBox.png,al2_uncon.png,50,29,NaN,NaN,0.85,0.15,1,0,0,1,Stable,Stable,2.941,1.71,0.664,1.336,inexpert
149,1671188854687,16/12/2022 11:07:34,1671188849458,0,16/12/2022 11:07:29,109680,37,task-qrxs,repeat-7g8d#1->-repeat-38fk#1->-repeat-qjz7#1->-repeat-5t6i#1,25988997,BLIND,7671893,NaN,complete,NaN,NaN,computer,Desktop or Laptop,Windows 10,Edge 108.0.1462.46,1280x720,1280x720,End of Day 1,SLS,90,A,Pass,End of Day 1,Pass,NaN,NaN,NaN,Pass,NaN,Pass,NaN,schedule_B,schedule_B,31,15,1,Screen 1,Zone1,continue_button,1136.39999999991,NaN,NaN,,NaN,0,1,0,NaN,NaN,NaN,NaN,NaN,trial_left,blueBox.png,greenBox.png,blueBox.png,al2_uncon.png,61,30,NaN,NaN,0.85,0.15,1,0,0,0,Stable,Stable,2.79,1.735,0.601,2.345,inexpert
150,1671188855675,16/12/2022 11:07:35,1671188850447,0,16/12/2022 11:07:30,109680,37,task-qrxs,repeat-7g8d#1->-repeat-38fk#1->-repeat-qjz7#1->-repeat-5t6i#1,25988997,BLIND,7671893,NaN,complete,NaN,NaN,computer,Desktop or Laptop,Windows 10,Edge 108.0.1462.46,1280x720,1280x720,End of Day 1,SLS,90,A,Pass,End of Day 1,Pass,NaN,NaN,NaN,Pass,NaN,Pass,NaN,schedule_B,schedule_B,31,15,2,individual,Zone4,timelimit_screen,1000.27499999999,NaN,NaN,,NaN,0,1,0,NaN,NaN,1,NaN,NaN,trial_left,blueBox.png,greenBox.png,blueBox.png,al2_uncon.png,61,30,NaN,NaN,0.85,0.15,1,0,0,0,Stable,Stable,2.79,1.735,0.601,2.345,inexpert
151,1671188856473,16/12/2022 11:07:36,1671188851237,0,16/12/2022 11:07:31,109680,37,task-qrxs,repeat-7g8d#1->-repeat-38fk#1->-repeat-qjz7#1->-repeat-5t6i#1,25988997,BLIND,7671893,NaN,complete,NaN,NaN,computer,Desktop or Laptop,Windows 10,Edge 108.0.1462.46,1280x720,1280x720,End of Day 1,SLS,90,A,Pass,End of Day 1,Pass,NaN,NaN,NaN,Pass,NaN,Pass,NaN,schedule_B,schedule_B,31,15,3,offer,bluebox,response_button_image,778.40000000014,NaN,NaN,blueBox.png,1,1,0,0,NaN,NaN,NaN,NaN,NaN,trial_left,blueBox.png,greenBox.png,blueBox.png,al2_uncon.png,61,30,NaN,NaN,0.85,0.15,1,0,0,0,Stable,Stable,2.79,1.735,0.601,2.345,inexpert
152,1671188858460,16/12/2022 11:07:38,1671188853230,0,16/12/2022 11:07:33,109680,37,task-qrxs,repeat-7g8d#1->-repeat-38fk#1->-repeat-qjz7#1->-repeat-5t6i#1,25988997,BLIND,7671893,NaN,complete,NaN,NaN,computer,Desktop or Laptop,Windows 10,Edge 108.0.1462.46,1280x720,1280x720,End of Day 1,SLS,90,A,Pass,End of Day 1,Pass,NaN,NaN,NaN,Pass,NaN,Pass,NaN,schedule_B,schedule_B,31,15,5,feedback_r,Zone7,timelimit_screen,1999.913,NaN,NaN,,NaN,0,1,0,NaN,NaN,1,NaN,NaN,trial_left,blueBox.png,greenBox.png,blueBox.png,al2_uncon.png,61,30,NaN,NaN,0.85,0.15,1,0,0,0,Stable,Stable,2.79,1.735,0.601,2.345,inexpert
153,1671188858615,16/12/2022 11:07:38,1671188853380,0,16/12/2022 11:07:33,109680,37,task-qrxs,repeat-7g8d#1->-repeat-38fk#1->-repeat-qjz7#1->-repeat-5t6i#1,25988997,BLIND,7671893,NaN,complete,NaN,NaN,computer,Desktop or Laptop,Windows 10,Edge 108.0.1462.46,1280x720,1280x720,End of Day 1,SLS,90,A,Pass,End of Day 1,Pass,NaN,NaN,NaN,Pass,NaN,Pass,NaN,schedule_B,schedule_B,31,15,6,end,Zone1,timelimit_screen,150.110000000015,NaN,NaN,,NaN,0,1,0,NaN,NaN,1,NaN,NaN,trial_left,blueBox.png,greenBox.png,blueBox.png,al2_uncon.png,61,30,NaN,NaN,0.85,0.15,1,0,0,0,Stable,Stable,2.79,1.735,0.601,2.345,inexpert
154,1671188860878,16/12/2022 11:07:40,1671188855649,0,16/12/2022 11:07:35,109680,37,task-qrxs,repeat-7g8d#1->-repeat-38fk#1->-repeat-qjz7#1->-repeat-5t6i#1,25988997,BLIND,7671893,NaN,complete,NaN,NaN,computer,Desktop or Laptop,Windows 10,Edge 108.0.1462.46,1280x720,1280x720,End of Day 1,SLS,90,A,Pass,End of Day 1,Pass,NaN,NaN,NaN,Pass,NaN,Pass,NaN,schedule_B,schedule_B,32,16,1,Screen 1,Zone1,continue_button,2253.89999999991,NaN,NaN,,NaN,0,1,0,NaN,NaN,NaN,NaN,NaN,trial_right,blueBox.png,greenBox.png,blueBox.png,al2_uncon.png,62,31,NaN,NaN,0.85,0.85,1,1,1,0,Volatile,Volatile,2.538,1.672,1.143,1.555,inexpert
155,1671188861873,16/12/2022 11:07:41,1671188856646,0,16/12/2022 11:07:36,109680,37,task-qrxs,repeat-7g8d#1->-repeat-38fk#1->-repeat-qjz7#1->-repeat-5t6i#1,25988997,BLIND,7671893,NaN,complete,NaN,NaN,computer,Desktop or Laptop,Windows 10,Edge 108.0.1462.46,1280x720,1280x720,End of Day 1,SLS,90,A,Pass,End of Day 1,Pass,NaN,NaN,NaN,Pass,NaN,Pass,NaN,schedule_B,schedule_B,32,16,2,individual,Zone4,timelimit_screen,999.388999999996,NaN,NaN,,NaN,0,1,0,NaN,NaN,1,NaN,NaN,trial_right,blueBox.png,greenBox.png,blueBox.png,al2_uncon.png,62,31,NaN,NaN,0.85,0.85,1,1,1,0,Volatile,Volatile,2.538,1.672,1.143,1.555,inexpert
156,1671188863661,16/12/2022 11:07:43,1671188858434,0,16/12/2022 11:07:38,109680,37,task-qrxs,repeat-7g8d#1->-repeat-38fk#1->-repeat-qjz7#1->-repeat-5t6i#1,25988997,BLIND,7671893,NaN,complete,NaN,NaN,computer,Desktop or Laptop,Windows 10,Edge 108.0.1462.46,1280x720,1280x720,End of Day 1,SLS,90,A,Pass,End of Day 1,Pass,NaN,NaN,NaN,Pass,NaN,Pass,NaN,schedule_B,schedule_B,32,16,3,offer,Zone3,response_button_image,1778.60000000009,NaN,NaN,blueBox.png,1,1,0,0,NaN,NaN,NaN,NaN,NaN,trial_right,blueBox.png,greenBox.png,blueBox.png,al2_uncon.png,62,31,NaN,NaN,0.85,0.85,1,1,1,0,Volatile,Volatile,2.538,1.672,1.143,1.555,inexpert
157,1671188865659,16/12/2022 11:07:45,1671188860430,0,16/12/2022 11:07:40,109680,37,task-qrxs,repeat-7g8d#1->-repeat-38fk#1->-repeat-qjz7#1->-repeat-5t6i#1,25988997,BLIND,7671893,NaN,complete,NaN,NaN,computer,Desktop or Laptop,Windows 10,Edge 108.0.1462.46,1280x720,1280x720,End of Day 1,SLS,90,A,Pass,End of Day 1,Pass,NaN,NaN,NaN,Pass,NaN,Pass,NaN,schedule_B,schedule_B,32,16,5,feedback_r,Zone7,timelimit_screen,2000.23200000002,NaN,NaN,,NaN,0,1,0,NaN,NaN,1,NaN,NaN,trial_right,blueBox.png,greenBox.png,blueBox.png,al2_uncon.png,62,31,NaN,NaN,0.85,0.85,1,1,1,0,Volatile,Volatile,2.538,1.672,1.143,1.555,inexpert
158,1671188865807,16/12/2022 11:07:45,1671188860579,0,16/12/2022 11:07:40,109680,37,task-qrxs,repeat-7g8d#1->-repeat-38fk#1->-repeat-qjz7#1->-repeat-5t6i#1,25988997,BLIND,7671893,NaN,complete,NaN,NaN,computer,Desktop or Laptop,Windows 10,Edge 108.0.1462.46,1280x720,1280x720,End of Day 1,SLS,90,A,Pass,End of Day 1,Pass,NaN,NaN,NaN,Pass,NaN,Pass,NaN,schedule_B,schedule_B,32,16,6,end,Zone1,timelimit_screen,149.410999999993,NaN,NaN,,NaN,0,1,0,NaN,NaN,1,NaN,NaN,trial_right,blueBox.png,greenBox.png,blueBox.png,al2_uncon.png,62,31,NaN,NaN,0.85,0.85,1,1,1,0,Volatile,Volatile,2.538,1.672,1.143,1.555,inexpert
159,1671188866761,16/12/2022 11:07:46,1671188861532,0,16/12/2022 11:07:41,109680,37,task-qrxs,repeat-7g8d#1->-repeat-38fk#1->-repeat-qjz7#1->-repeat-5t6i#1,25988997,BLIND,7671893,NaN,complete,NaN,NaN,computer,Desktop or Laptop,Windows 10,Edge 108.0.1462.46,1280x720,1280x720,End of Day 1,SLS,90,A,Pass,End of Day 1,Pass,NaN,NaN,NaN,Pass,NaN,Pass,NaN,schedule_B,schedule_B,33,16,1,Screen 1,Zone1,continue_button,938,NaN,NaN,,NaN,0,1,0,NaN,NaN,NaN,NaN,NaN,trial_left,blueBox.png,greenBox.png,blueBox.png,al2_uncon.png,63,32,NaN,NaN,0.85,0.85,1,0,0,0,Volatile,Volatile,2.739,1.13,0.815,1.387,inexpert
160,1671188867751,16/12/2022 11:07:47,1671188862520,0,16/12/2022 11:07:42,109680,37,task-qrxs,repeat-7g8d#1->-repeat-38fk#1->-repeat-qjz7#1->-repeat-5t6i#1,25988997,BLIND,7671893,NaN,complete,NaN,NaN,computer,Desktop or Laptop,Windows 10,Edge 108.0.1462.46,1280x720,1280x720,End of Day 1,SLS,90,A,Pass,End of Day 1,Pass,NaN,NaN,NaN,Pass,NaN,Pass,NaN,schedule_B,schedule_B,33,16,2,individual,Zone4,timelimit_screen,991.82699999999,NaN,NaN,,NaN,0,1,0,NaN,NaN,1,NaN,NaN,trial_left,blueBox.png,greenBox.png,blueBox.png,al2_uncon.png,63,32,NaN,NaN,0.85,0.85,1,0,0,0,Volatile,Volatile,2.739,1.13,0.815,1.387,inexpert
161,1671188868218,16/12/2022 11:07:48,1671188862964,0,16/12/2022 11:07:42,109680,37,task-qrxs,repeat-7g8d#1->-repeat-38fk#1->-repeat-qjz7#1->-repeat-5t6i#1,25988997,BLIND,7671893,NaN,complete,NaN,NaN,computer,Desktop or Laptop,Windows 10,Edge 108.0.1462.46,1280x720,1280x720,End of Day 1,SLS,90,A,Pass,End of Day 1,Pass,NaN,NaN,NaN,Pass,NaN,Pass,NaN,schedule_B,schedule_B,33,16,3,offer,bluebox,response_button_image,438.699999999953,NaN,NaN,blueBox.png,1,1,0,0,NaN,NaN,NaN,NaN,NaN,trial_left,blueBox.png,greenBox.png,blueBox.png,al2_uncon.png,63,32,NaN,NaN,0.85,0.85,1,0,0,0,Volatile,Volatile,2.739,1.13,0.815,1.387,inexpert
162,1671188870193,16/12/2022 11:07:50,1671188864961,0,16/12/2022 11:07:44,109680,37,task-qrxs,repeat-7g8d#1->-repeat-38fk#1->-repeat-qjz7#1->-repeat-5t6i#1,25988997,BLIND,7671893,NaN,complete,NaN,NaN,computer,Desktop or Laptop,Windows 10,Edge 108.0.1462.46,1280x720,1280x720,End of Day 1,SLS,90,A,Pass,End of Day 1,Pass,NaN,NaN,NaN,Pass,NaN,Pass,NaN,schedule_B,schedule_B,33,16,5,feedback_r,Zone7,timelimit_screen,1998.87,NaN,NaN,,NaN,0,1,0,NaN,NaN,1,NaN,NaN,trial_left,blueBox.png,greenBox.png,blueBox.png,al2_uncon.png,63,32,NaN,NaN,0.85,0.85,1,0,0,0,Volatile,Volatile,2.739,1.13,0.815,1.387,inexpert
163,1671188870347,16/12/2022 11:07:50,1671188865112,0,16/12/2022 11:07:45,109680,37,task-qrxs,repeat-7g8d#1->-repeat-38fk#1->-repeat-qjz7#1->-repeat-5t6i#1,25988997,BLIND,7671893,NaN,complete,NaN,NaN,computer,Desktop or Laptop,Windows 10,Edge 108.0.1462.46,1280x720,1280x720,End of Day 1,SLS,90,A,Pass,End of Day 1,Pass,NaN,NaN,NaN,Pass,NaN,Pass,NaN,schedule_B,schedule_B,33,16,6,end,Zone1,timelimit_screen,150.388000000006,NaN,NaN,,NaN,0,1,0,NaN,NaN,1,NaN,NaN,trial_left,blueBox.png,greenBox.png,blueBox.png,al2_uncon.png,63,32,NaN,NaN,0.85,0.85,1,0,0,0,Volatile,Volatile,2.739,1.13,0.815,1.387,inexpert
