EventIndex,UTCTimestamp,UTCDate,LocalTimestamp,LocalTimezone,LocalDate,ExperimentID,ExperimentVersion,TreeNodeKey,RepeatKey,ScheduleID,ParticipantPublicID,ParticipantPrivateID,ParticipantStartingGroup,ParticipantStatus,ParticipantCompletionCode,ParticipantExternalSessionID,ParticipantDeviceType,ParticipantDevice,ParticipantOS,ParticipantBrowser,ParticipantMonitorSize,ParticipantViewportSize,Checkpoint,TaskName,TaskVersion,randomiser_6z9f,branch_kxy7,checkpoint_tqwf,branch_rtog,branch_7dgx,checkpoint_mqen,branch_yx2c,branch_3n8o,branch_f1s6,branch_x6l7,branch_21hs,Spreadsheet,SpreadsheetName,SpreadsheetRow,TrialNumber,ScreenNumber,ScreenName,ZoneName,ZoneType,ReactionTime,ReactionOnset,ResponseType,Response,Attempt,Correct,Incorrect,Dishonest,XCoordinate,YCoordinate,TimedOut,randomise_blocks,randomise_trials,display,ANSWER,left_button,right_button,advice,orderno,trialno,ShowProgressBar,image,prob_blue_corr,prob_group_corr,corr_ans,group_corr,group_choice,blue_pos,indiv_vol,soc_vol,ITI_1,ITI_2,ITI_3,ITI_4,condition
1,1671108108577,15/12/2022 12:41:48,1671108103628,0,15/12/2022 12:41:43,109680,37,task-xjip,repeat-7g8d#1->-repeat-38fk#1,25970361,BLIND,7671893,NaN,complete,NaN,NaN,computer,Desktop or Laptop,Windows 10,Edge 108.0.1462.46,1280x720,1280x720,End of Day 1,SLS,90,A,Pass,End of Day 1,Pass,NaN,NaN,NaN,Pass,NaN,Pass,NaN,schedule_A,,NaN,NaN,NaN,,,,NaN,NaN,NaN,,NaN,0,1,0,NaN,NaN,NaN,NaN,NaN,,,,,,NaN,NaN,NaN,NaN,NaN,NaN,NaN,NaN,NaN,NaN,,,NaN,NaN,NaN,NaN,
2,1671108111527,15/12/2022 12:41:51,1671108106581,0,15/12/2022 12:41:46,109680,37,task-xjip,repeat-7g8d#1->-repeat-38fk#1,25970361,BLIND,7671893,NaN,complete,NaN,NaN,computer,Desktop or Laptop,Windows 10,Edge 108.0.1462.46,1280x720,1280x720,End of Day 1,SLS,90,A,Pass,End of Day 1,Pass,NaN,NaN,NaN,Pass,NaN,Pass,NaN,schedule_A,schedule_A,1,1,1,Screen 1,Zone1,continue_button,1694.59999990463,NaN,NaN,,NaN,0,1,0,NaN,NaN,NaN,NaN,NaN,getReady,,,,,1,NaN,NaN,NaN,NaN,NaN,NaN,NaN,NaN,NaN,,,NaN,NaN,NaN,NaN,
3,1671108113901,15/12/2022 12:41:53,1671108108988,0,15/12/2022 12:41:48,109680,37,task-xjip,repeat-7g8d#1->-repeat-38fk#1,25970361,BLIND,7671893,NaN,complete,NaN,NaN,computer,Desktop or Laptop,Windows 10,Edge 108.0.1462.46,1280x720,1280x720,End of Day 1,SLS,90,A,Pass,End of Day 1,Pass,NaN,NaN,NaN,Pass,NaN,Pass,NaN,schedule_A,schedule_A,1,1,2,Screen 2,Zone1,continue_button,2400.59999990463,NaN,NaN,,NaN,0,1,0,NaN,NaN,NaN,NaN,NaN,getReady,,,,,1,NaN,NaN,NaN,NaN,NaN,NaN,NaN,NaN,NaN,,,NaN,NaN,NaN,NaN,
4,1671108125566,15/12/2022 12:42:05,1671108120661,0,15/12/2022 12:42:00,109680,37,task-xjip,repeat-7g8d#1->-repeat-38fk#1,25970361,BLIND,7671893,NaN,complete,NaN,NaN,computer,Desktop or Laptop,Windows 10,Edge 108.0.1462.46,1280x720,1280x720,End of Day 1,SLS,90,A,Pass,End of Day 1,Pass,NaN,NaN,NaN,Pass,NaN,Pass,NaN,schedule_A,schedule_A,2,1,1,Screen 1,Zone1,continue_button,11651.3999996185,NaN,NaN,,NaN,0,1,0,NaN,NaN,NaN,NaN,NaN,trial_right,redBox.png,yellowBox.png,redBox.png,al1_con.png,2,1,NaN,NaN,0.85,0.85,1,1,1,0,Volatile,Stable,3.471,0.525,1.66,2.529,expert
5,1671108126557,15/12/2022 12:42:06,1671108121659,0,15/12/2022 12:42:01,109680,37,task-xjip,repeat-7g8d#1->-repeat-38fk#1,25970361,BLIND,7671893,NaN,complete,NaN,NaN,computer,Desktop or Laptop,Windows 10,Edge 108.0.1462.46,1280x720,1280x720,End of Day 1,SLS,90,A,Pass,End of Day 1,Pass,NaN,NaN,NaN,Pass,NaN,Pass,NaN,schedule_A,schedule_A,2,1,2,individual,Zone4,timelimit_screen,1000.076,NaN,NaN,,NaN,0,1,0,NaN,NaN,1,NaN,NaN,trial_right,redBox.png,yellowBox.png,redBox.png,al1_con.png,2,1,NaN,NaN,0.85,0.85,1,1,1,0,Volatile,Stable,3.471,0.525,1.66,2.529,expert
6,1671108128023,15/12/2022 12:42:08,1671108123110,0,15/12/2022 12:42:03,109680,37,task-xjip,repeat-7g8d#1->-repeat-38fk#1,25970361,BLIND,7671893,NaN,complete,NaN,NaN,computer,Desktop or Laptop,Windows 10,Edge 108.0.1462.46,1280x720,1280x720,End of Day 1,SLS,90,A,Pass,End of Day 1,Pass,NaN,NaN,NaN,Pass,NaN,Pass,NaN,schedule_A,schedule_A,2,1,3,offer,Zone3,response_button_image,1439.90000009537,NaN,NaN,redBox.png,1,1,0,0,NaN,NaN,NaN,NaN,NaN,trial_right,redBox.png,yellowBox.png,redBox.png,al1_con.png,2,1,NaN,NaN,0.85,0.85,1,1,1,0,Volatile,Stable,3.471,0.525,1.66,2.529,expert
7,1671108129997,15/12/2022 12:42:09,1671108125107,0,15/12/2022 12:42:05,109680,37,task-xjip,repeat-7g8d#1->-repeat-38fk#1,25970361,BLIND,7671893,NaN,complete,NaN,NaN,computer,Desktop or Laptop,Windows 10,Edge 108.0.1462.46,1280x720,1280x720,End of Day 1,SLS,90,A,Pass,End of Day 1,Pass,NaN,NaN,NaN,Pass,NaN,Pass,NaN,schedule_A,schedule_A,2,1,5,feedback_r,Zone7,timelimit_screen,1999.283,NaN,NaN,,NaN,0,1,0,NaN,NaN,1,NaN,NaN,trial_right,redBox.png,yellowBox.png,redBox.png,al1_con.png,2,1,NaN,NaN,0.85,0.85,1,1,1,0,Volatile,Stable,3.471,0.525,1.66,2.529,expert
8,1671108130156,15/12/2022 12:42:10,1671108125256,0,15/12/2022 12:42:05,109680,37,task-xjip,repeat-7g8d#1->-repeat-38fk#1,25970361,BLIND,7671893,NaN,complete,NaN,NaN,computer,Desktop or Laptop,Windows 10,Edge 108.0.1462.46,1280x720,1280x720,End of Day 1,SLS,90,A,Pass,End of Day 1,Pass,NaN,NaN,NaN,Pass,NaN,Pass,NaN,schedule_A,schedule_A,2,1,6,end,Zone1,timelimit_screen,150.015000000003,NaN,NaN,,NaN,0,1,0,NaN,NaN,1,NaN,NaN,trial_right,redBox.png,yellowBox.png,redBox.png,al1_con.png,2,1,NaN,NaN,0.85,0.85,1,1,1,0,Volatile,Stable,3.471,0.525,1.66,2.529,expert
9,1671108131960,15/12/2022 12:42:11,1671108127072,0,15/12/2022 12:42:07,109680,37,task-xjip,repeat-7g8d#1->-repeat-38fk#1,25970361,BLIND,7671893,NaN,complete,NaN,NaN,computer,Desktop or Laptop,Windows 10,Edge 108.0.1462.46,1280x720,1280x720,End of Day 1,SLS,90,A,Pass,End of Day 1,Pass,NaN,NaN,NaN,Pass,NaN,Pass,NaN,schedule_A,schedule_A,3,1,1,Screen 1,Zone1,continue_button,1799.90000009537,NaN,NaN,,NaN,0,1,0,NaN,NaN,NaN,NaN,NaN,trial_left,redBox.png,redBox.png,yellowBox.png,al1_con.png,3,2,NaN,NaN,0.85,0.85,1,1,1,1,Volatile,Stable,1.782,1.168,1.168,2.462,expert
10,1671108132962,15/12/2022 12:42:12,1671108128056,0,15/12/2022 12:42:08,109680,37,task-xjip,repeat-7g8d#1->-repeat-38fk#1,25970361,BLIND,7671893,NaN,complete,NaN,NaN,computer,Desktop or Laptop,Windows 10,Edge 108.0.1462.46,1280x720,1280x720,End of Day 1,SLS,90,A,Pass,End of Day 1,Pass,NaN,NaN,NaN,Pass,NaN,Pass,NaN,schedule_A,schedule_A,3,1,2,individual,Zone4,timelimit_screen,999.746999999999,NaN,NaN,,NaN,0,1,0,NaN,NaN,1,NaN,NaN,trial_left,redBox.png,redBox.png,yellowBox.png,al1_con.png,3,2,NaN,NaN,0.85,0.85,1,1,1,1,Volatile,Stable,1.782,1.168,1.168,2.462,expert
11,1671108133815,15/12/2022 12:42:13,1671108128925,0,15/12/2022 12:42:08,109680,37,task-xjip,repeat-7g8d#1->-repeat-38fk#1,25970361,BLIND,7671893,NaN,complete,NaN,NaN,computer,Desktop or Laptop,Windows 10,Edge 108.0.1462.46,1280x720,1280x720,End of Day 1,SLS,90,A,Pass,End of Day 1,Pass,NaN,NaN,NaN,Pass,NaN,Pass,NaN,schedule_A,schedule_A,3,1,3,offer,Zone2,response_button_image,859.599999904633,NaN,NaN,redBox.png,1,1,0,0,NaN,NaN,NaN,NaN,NaN,trial_left,redBox.png,redBox.png,yellowBox.png,al1_con.png,3,2,NaN,NaN,0.85,0.85,1,1,1,1,Volatile,Stable,1.782,1.168,1.168,2.462,expert
12,1671108135923,15/12/2022 12:42:15,1671108130922,0,15/12/2022 12:42:10,109680,37,task-xjip,repeat-7g8d#1->-repeat-38fk#1,25970361,BLIND,7671893,NaN,complete,NaN,NaN,computer,Desktop or Laptop,Windows 10,Edge 108.0.1462.46,1280x720,1280x720,End of Day 1,SLS,90,A,Pass,End of Day 1,Pass,NaN,NaN,NaN,Pass,NaN,Pass,NaN,schedule_A,schedule_A,3,1,4,feedback_l,Zone7,timelimit_screen,1999.24,NaN,NaN,,NaN,0,1,0,NaN,NaN,1,NaN,NaN,trial_left,redBox.png,redBox.png,yellowBox.png,al1_con.png,3,2,NaN,NaN,0.85,0.85,1,1,1,1,Volatile,Stable,1.782,1.168,1.168,2.462,expert
13,1671108135980,15/12/2022 12:42:15,1671108131073,0,15/12/2022 12:42:11,109680,37,task-xjip,repeat-7g8d#1->-repeat-38fk#1,25970361,BLIND,7671893,NaN,complete,NaN,NaN,computer,Desktop or Laptop,Windows 10,Edge 108.0.1462.46,1280x720,1280x720,End of Day 1,SLS,90,A,Pass,End of Day 1,Pass,NaN,NaN,NaN,Pass,NaN,Pass,NaN,schedule_A,schedule_A,3,1,6,end,Zone1,timelimit_screen,150.001,NaN,NaN,,NaN,0,1,0,NaN,NaN,1,NaN,NaN,trial_left,redBox.png,redBox.png,yellowBox.png,al1_con.png,3,2,NaN,NaN,0.85,0.85,1,1,1,1,Volatile,Stable,1.782,1.168,1.168,2.462,expert
14,1671108137083,15/12/2022 12:42:17,1671108132179,0,15/12/2022 12:42:12,109680,37,task-xjip,repeat-7g8d#1->-repeat-38fk#1,25970361,BLIND,7671893,NaN,complete,NaN,NaN,computer,Desktop or Laptop,Windows 10,Edge 108.0.1462.46,1280x720,1280x720,End of Day 1,SLS,90,A,Pass,End of Day 1,Pass,NaN,NaN,NaN,Pass,NaN,Pass,NaN,schedule_A,schedule_A,4,2,1,Screen 1,Zone1,continue_button,1088.5,NaN,NaN,,NaN,0,1,0,NaN,NaN,NaN,NaN,NaN,trial_right,redBox.png,yellowBox.png,redBox.png,al1_con.png,4,3,NaN,NaN,0.85,0.85,1,1,1,0,Volatile,Stable,1.983,1.181,0.538,1.588,expert
15,1671108138077,15/12/2022 12:42:18,1671108133172,0,15/12/2022 12:42:13,109680,37,task-xjip,repeat-7g8d#1->-repeat-38fk#1,25970361,BLIND,7671893,NaN,complete,NaN,NaN,computer,Desktop or Laptop,Windows 10,Edge 108.0.1462.46,1280x720,1280x720,End of Day 1,SLS,90,A,Pass,End of Day 1,Pass,NaN,NaN,NaN,Pass,NaN,Pass,NaN,schedule_A,schedule_A,4,2,2,individual,Zone4,timelimit_screen,999.493999999999,NaN,NaN,,NaN,0,1,0,NaN,NaN,1,NaN,NaN,trial_right,redBox.png,yellowBox.png,redBox.png,al1_con.png,4,3,NaN,NaN,0.85,0.85,1,1,1,0,Volatile,Stable,1.983,1.181,0.538,1.588,expert
16,1671108139218,15/12/2022 12:42:19,1671108134302,0,15/12/2022 12:42:14,109680,37,task-xjip,repeat-7g8d#1->-repeat-38fk#1,25970361,BLIND,7671893,NaN,complete,NaN,NaN,computer,Desktop or Laptop,Windows 10,Edge 108.0.1462.46,1280x720,1280x720,End of Day 1,SLS,90,A,Pass,End of Day 1,Pass,NaN,NaN,NaN,Pass,NaN,Pass,NaN,schedule_A,schedule_A,4,2,3,offer,Zone3,response_button_image,1120.19999980927,NaN,NaN,redBox.png,1,1,0,0,NaN,NaN,NaN,NaN,NaN,trial_right,redBox.png,yellowBox.png,redBox.png,al1_con.png,4,3,NaN,NaN,0.85,0.85,1,1,1,0,Volatile,Stable,1.983,1.181,0.538,1.588,expert
17,1671108141191,15/12/2022 12:42:21,1671108136288,0,15/12/2022 12:42:16,109680,37,task-xjip,repeat-7g8d#1->-repeat-38fk#1,25970361,BLIND,7671893,NaN,complete,NaN,NaN,computer,Desktop or Laptop,Windows 10,Edge 108.0.1462.46,1280x720,1280x720,End of Day 1,SLS,90,A,Pass,End of Day 1,Pass,NaN,NaN,NaN,Pass,NaN,Pass,NaN,schedule_A,schedule_A,4,2,5,feedback_r,Zone7,timelimit_screen,1999.534,NaN,NaN,,NaN,0,1,0,NaN,NaN,1,NaN,NaN,trial_right,redBox.png,yellowBox.png,redBox.png,al1_con.png,4,3,NaN,NaN,0.85,0.85,1,1,1,0,Volatile,Stable,1.983,1.181,0.538,1.588,expert
18,1671108141327,15/12/2022 12:42:21,1671108136438,0,15/12/2022 12:42:16,109680,37,task-xjip,repeat-7g8d#1->-repeat-38fk#1,25970361,BLIND,7671893,NaN,complete,NaN,NaN,computer,Desktop or Laptop,Windows 10,Edge 108.0.1462.46,1280x720,1280x720,End of Day 1,SLS,90,A,Pass,End of Day 1,Pass,NaN,NaN,NaN,Pass,NaN,Pass,NaN,schedule_A,schedule_A,4,2,6,end,Zone1,timelimit_screen,150.131999999998,NaN,NaN,,NaN,0,1,0,NaN,NaN,1,NaN,NaN,trial_right,redBox.png,yellowBox.png,redBox.png,al1_con.png,4,3,NaN,NaN,0.85,0.85,1,1,1,0,Volatile,Stable,1.983,1.181,0.538,1.588,expert
19,1671108143201,15/12/2022 12:42:23,1671108138308,0,15/12/2022 12:42:18,109680,37,task-xjip,repeat-7g8d#1->-repeat-38fk#1,25970361,BLIND,7671893,NaN,complete,NaN,NaN,computer,Desktop or Laptop,Windows 10,Edge 108.0.1462.46,1280x720,1280x720,End of Day 1,SLS,90,A,Pass,End of Day 1,Pass,NaN,NaN,NaN,Pass,NaN,Pass,NaN,schedule_A,schedule_A,5,3,1,Screen 1,Zone1,continue_button,1855.69999980927,NaN,NaN,,NaN,0,1,0,NaN,NaN,NaN,NaN,NaN,trial_right,redBox.png,yellowBox.png,redBox.png,al1_con.png,5,4,NaN,NaN,0.85,0.85,1,1,1,0,Volatile,Stable,1.529,0.891,1.004,1,expert
20,1671108144205,15/12/2022 12:42:24,1671108139304,0,15/12/2022 12:42:19,109680,37,task-xjip,repeat-7g8d#1->-repeat-38fk#1,25970361,BLIND,7671893,NaN,complete,NaN,NaN,computer,Desktop or Laptop,Windows 10,Edge 108.0.1462.46,1280x720,1280x720,End of Day 1,SLS,90,A,Pass,End of Day 1,Pass,NaN,NaN,NaN,Pass,NaN,Pass,NaN,schedule_A,schedule_A,5,3,2,individual,Zone4,timelimit_screen,1000.075,NaN,NaN,,NaN,0,1,0,NaN,NaN,1,NaN,NaN,trial_right,redBox.png,yellowBox.png,redBox.png,al1_con.png,5,4,NaN,NaN,0.85,0.85,1,1,1,0,Volatile,Stable,1.529,0.891,1.004,1,expert
21,1671108145177,15/12/2022 12:42:25,1671108140277,0,15/12/2022 12:42:20,109680,37,task-xjip,repeat-7g8d#1->-repeat-38fk#1,25970361,BLIND,7671893,NaN,complete,NaN,NaN,computer,Desktop or Laptop,Windows 10,Edge 108.0.1462.46,1280x720,1280x720,End of Day 1,SLS,90,A,Pass,End of Day 1,Pass,NaN,NaN,NaN,Pass,NaN,Pass,NaN,schedule_A,schedule_A,5,3,3,offer,Zone3,response_button_image,962.599999904633,NaN,NaN,redBox.png,1,1,0,0,NaN,NaN,NaN,NaN,NaN,trial_right,redBox.png,yellowBox.png,redBox.png,al1_con.png,5,4,NaN,NaN,0.85,0.85,1,1,1,0,Volatile,Stable,1.529,0.891,1.004,1,expert
22,1671108147174,15/12/2022 12:42:27,1671108142270,0,15/12/2022 12:42:22,109680,37,task-xjip,repeat-7g8d#1->-repeat-38fk#1,25970361,BLIND,7671893,NaN,complete,NaN,NaN,computer,Desktop or Laptop,Windows 10,Edge 108.0.1462.46,1280x720,1280x720,End of Day 1,SLS,90,A,Pass,End of Day 1,Pass,NaN,NaN,NaN,Pass,NaN,Pass,NaN,schedule_A,schedule_A,5,3,5,feedback_r,Zone7,timelimit_screen,1999.969,NaN,NaN,,NaN,0,1,0,NaN,NaN,1,NaN,NaN,trial_right,redBox.png,yellowBox.png,redBox.png,al1_con.png,5,4,NaN,NaN,0.85,0.85,1,1,1,0,Volatile,Stable,1.529,0.891,1.004,1,expert
23,1671108147325,15/12/2022 12:42:27,1671108142419,0,15/12/2022 12:42:22,109680,37,task-xjip,repeat-7g8d#1->-repeat-38fk#1,25970361,BLIND,7671893,NaN,complete,NaN,NaN,computer,Desktop or Laptop,Windows 10,Edge 108.0.1462.46,1280x720,1280x720,End of Day 1,SLS,90,A,Pass,End of Day 1,Pass,NaN,NaN,NaN,Pass,NaN,Pass,NaN,schedule_A,schedule_A,5,3,6,end,Zone1,timelimit_screen,149.851999999999,NaN,NaN,,NaN,0,1,0,NaN,NaN,1,NaN,NaN,trial_right,redBox.png,yellowBox.png,redBox.png,al1_con.png,5,4,NaN,NaN,0.85,0.85,1,1,1,0,Volatile,Stable,1.529,0.891,1.004,1,expert
24,1671108148510,15/12/2022 12:42:28,1671108143605,0,15/12/2022 12:42:23,109680,37,task-xjip,repeat-7g8d#1->-repeat-38fk#1,25970361,BLIND,7671893,NaN,complete,NaN,NaN,computer,Desktop or Laptop,Windows 10,Edge 108.0.1462.46,1280x720,1280x720,End of Day 1,SLS,90,A,Pass,End of Day 1,Pass,NaN,NaN,NaN,Pass,NaN,Pass,NaN,schedule_A,schedule_A,6,2,1,Screen 1,Zone1,continue_button,1171.2000002861,NaN,NaN,,NaN,0,1,0,NaN,NaN,NaN,NaN,NaN,trial_left,redBox.png,redBox.png,yellowBox.png,al1_con.png,6,5,NaN,NaN,0.85,0.85,1,1,1,1,Volatile,Stable,1.832,1.118,0.752,1.79,expert
25,1671108149502,15/12/2022 12:42:29,1671108144602,0,15/12/2022 12:42:24,109680,37,task-xjip,repeat-7g8d#1->-repeat-38fk#1,25970361,BLIND,7671893,NaN,complete,NaN,NaN,computer,Desktop or Laptop,Windows 10,Edge 108.0.1462.46,1280x720,1280x720,End of Day 1,SLS,90,A,Pass,End of Day 1,Pass,NaN,NaN,NaN,Pass,NaN,Pass,NaN,schedule_A,schedule_A,6,2,2,individual,Zone4,timelimit_screen,999.165999999997,NaN,NaN,,NaN,0,1,0,NaN,NaN,1,NaN,NaN,trial_left,redBox.png,redBox.png,yellowBox.png,al1_con.png,6,5,NaN,NaN,0.85,0.85,1,1,1,1,Volatile,Stable,1.832,1.118,0.752,1.79,expert
26,1671108150398,15/12/2022 12:42:30,1671108145493,0,15/12/2022 12:42:25,109680,37,task-xjip,repeat-7g8d#1->-repeat-38fk#1,25970361,BLIND,7671893,NaN,complete,NaN,NaN,computer,Desktop or Laptop,Windows 10,Edge 108.0.1462.46,1280x720,1280x720,End of Day 1,SLS,90,A,Pass,End of Day 1,Pass,NaN,NaN,NaN,Pass,NaN,Pass,NaN,schedule_A,schedule_A,6,2,3,offer,Zone2,response_button_image,882.200000286102,NaN,NaN,redBox.png,1,1,0,0,NaN,NaN,NaN,NaN,NaN,trial_left,redBox.png,redBox.png,yellowBox.png,al1_con.png,6,5,NaN,NaN,0.85,0.85,1,1,1,1,Volatile,Stable,1.832,1.118,0.752,1.79,expert
27,1671108152385,15/12/2022 12:42:32,1671108147484,0,15/12/2022 12:42:27,109680,37,task-xjip,repeat-7g8d#1->-repeat-38fk#1,25970361,BLIND,7671893,NaN,complete,NaN,NaN,computer,Desktop or Laptop,Windows 10,Edge 108.0.1462.46,1280x720,1280x720,End of Day 1,SLS,90,A,Pass,End of Day 1,Pass,NaN,NaN,NaN,Pass,NaN,Pass,NaN,schedule_A,schedule_A,6,2,4,feedback_l,Zone7,timelimit_screen,1999.298,NaN,NaN,,NaN,0,1,0,NaN,NaN,1,NaN,NaN,trial_left,redBox.png,redBox.png,yellowBox.png,al1_con.png,6,5,NaN,NaN,0.85,0.85,1,1,1,1,Volatile,Stable,1.832,1.118,0.752,1.79,expert
28,1671108152540,15/12/2022 12:42:32,1671108147636,0,15/12/2022 12:42:27,109680,37,task-xjip,repeat-7g8d#1->-repeat-38fk#1,25970361,BLIND,7671893,NaN,complete,NaN,NaN,computer,Desktop or Laptop,Windows 10,Edge 108.0.1462.46,1280x720,1280x720,End of Day 1,SLS,90,A,Pass,End of Day 1,Pass,NaN,NaN,NaN,Pass,NaN,Pass,NaN,schedule_A,schedule_A,6,2,6,end,Zone1,timelimit_screen,150.059000000001,NaN,NaN,,NaN,0,1,0,NaN,NaN,1,NaN,NaN,trial_left,redBox.png,redBox.png,yellowBox.png,al1_con.png,6,5,NaN,NaN,0.85,0.85,1,1,1,1,Volatile,Stable,1.832,1.118,0.752,1.79,expert
29,1671108156371,15/12/2022 12:42:36,1671108151470,0,15/12/2022 12:42:31,109680,37,task-xjip,repeat-7g8d#1->-repeat-38fk#1,25970361,BLIND,7671893,NaN,complete,NaN,NaN,computer,Desktop or Laptop,Windows 10,Edge 108.0.1462.46,1280x720,1280x720,End of Day 1,SLS,90,A,Pass,End of Day 1,Pass,NaN,NaN,NaN,Pass,NaN,Pass,NaN,schedule_A,schedule_A,7,4,1,Screen 1,Zone1,continue_button,3818.40000009537,NaN,NaN,,NaN,0,1,0,NaN,NaN,NaN,NaN,NaN,trial_right,yellowBox.png,redBox.png,yellowBox.png,al1_con.png,7,6,NaN,NaN,0.15,0.85,0,1,0,1,Volatile,Stable,3.294,0.815,1.282,2.664,expert
30,1671108157376,15/12/2022 12:42:37,1671108152468,0,15/12/2022 12:42:32,109680,37,task-xjip,repeat-7g8d#1->-repeat-38fk#1,25970361,BLIND,7671893,NaN,complete,NaN,NaN,computer,Desktop or Laptop,Windows 10,Edge 108.0.1462.46,1280x720,1280x720,End of Day 1,SLS,90,A,Pass,End of Day 1,Pass,NaN,NaN,NaN,Pass,NaN,Pass,NaN,schedule_A,schedule_A,7,4,2,individual,Zone4,timelimit_screen,999.837,NaN,NaN,,NaN,0,1,0,NaN,NaN,1,NaN,NaN,trial_right,yellowBox.png,redBox.png,yellowBox.png,al1_con.png,7,6,NaN,NaN,0.15,0.85,0,1,0,1,Volatile,Stable,3.294,0.815,1.282,2.664,expert
31,1671108158500,15/12/2022 12:42:38,1671108153599,0,15/12/2022 12:42:33,109680,37,task-xjip,repeat-7g8d#1->-repeat-38fk#1,25970361,BLIND,7671893,NaN,complete,NaN,NaN,computer,Desktop or Laptop,Windows 10,Edge 108.0.1462.46,1280x720,1280x720,End of Day 1,SLS,90,A,Pass,End of Day 1,Pass,NaN,NaN,NaN,Pass,NaN,Pass,NaN,schedule_A,schedule_A,7,4,3,offer,Zone3,response_button_image,1121.09999990463,NaN,NaN,yellowBox.png,1,1,0,0,NaN,NaN,NaN,NaN,NaN,trial_right,yellowBox.png,redBox.png,yellowBox.png,al1_con.png,7,6,NaN,NaN,0.15,0.85,0,1,0,1,Volatile,Stable,3.294,0.815,1.282,2.664,expert
32,1671108160488,15/12/2022 12:42:40,1671108155584,0,15/12/2022 12:42:35,109680,37,task-xjip,repeat-7g8d#1->-repeat-38fk#1,25970361,BLIND,7671893,NaN,complete,NaN,NaN,computer,Desktop or Laptop,Windows 10,Edge 108.0.1462.46,1280x720,1280x720,End of Day 1,SLS,90,A,Pass,End of Day 1,Pass,NaN,NaN,NaN,Pass,NaN,Pass,NaN,schedule_A,schedule_A,7,4,5,feedback_r,Zone7,timelimit_screen,1999.966,NaN,NaN,,NaN,0,1,0,NaN,NaN,1,NaN,NaN,trial_right,yellowBox.png,redBox.png,yellowBox.png,al1_con.png,7,6,NaN,NaN,0.15,0.85,0,1,0,1,Volatile,Stable,3.294,0.815,1.282,2.664,expert
33,1671108160637,15/12/2022 12:42:40,1671108155733,0,15/12/2022 12:42:35,109680,37,task-xjip,repeat-7g8d#1->-repeat-38fk#1,25970361,BLIND,7671893,NaN,complete,NaN,NaN,computer,Desktop or Laptop,Windows 10,Edge 108.0.1462.46,1280x720,1280x720,End of Day 1,SLS,90,A,Pass,End of Day 1,Pass,NaN,NaN,NaN,Pass,NaN,Pass,NaN,schedule_A,schedule_A,7,4,6,end,Zone1,timelimit_screen,150.017,NaN,NaN,,NaN,0,1,0,NaN,NaN,1,NaN,NaN,trial_right,yellowBox.png,redBox.png,yellowBox.png,al1_con.png,7,6,NaN,NaN,0.15,0.85,0,1,0,1,Volatile,Stable,3.294,0.815,1.282,2.664,expert
34,1671108162129,15/12/2022 12:42:42,1671108157219,0,15/12/2022 12:42:37,109680,37,task-xjip,repeat-7g8d#1->-repeat-38fk#1,25970361,BLIND,7671893,NaN,complete,NaN,NaN,computer,Desktop or Laptop,Windows 10,Edge 108.0.1462.46,1280x720,1280x720,End of Day 1,SLS,90,A,Pass,End of Day 1,Pass,NaN,NaN,NaN,Pass,NaN,Pass,NaN,schedule_A,schedule_A,8,3,1,Screen 1,Zone1,continue_button,1472,NaN,NaN,,NaN,0,1,0,NaN,NaN,NaN,NaN,NaN,trial_left,yellowBox.png,yellowBox.png,redBox.png,al1_con.png,8,7,NaN,NaN,0.15,0.85,0,1,0,0,Volatile,Stable,3.269,1.37,1.786,2.328,expert
35,1671108163120,15/12/2022 12:42:43,1671108158217,0,15/12/2022 12:42:38,109680,37,task-xjip,repeat-7g8d#1->-repeat-38fk#1,25970361,BLIND,7671893,NaN,complete,NaN,NaN,computer,Desktop or Laptop,Windows 10,Edge 108.0.1462.46,1280x720,1280x720,End of Day 1,SLS,90,A,Pass,End of Day 1,Pass,NaN,NaN,NaN,Pass,NaN,Pass,NaN,schedule_A,schedule_A,8,3,2,individual,Zone4,timelimit_screen,999.882000000005,NaN,NaN,,NaN,0,1,0,NaN,NaN,1,NaN,NaN,trial_left,yellowBox.png,yellowBox.png,redBox.png,al1_con.png,8,7,NaN,NaN,0.15,0.85,0,1,0,0,Volatile,Stable,3.269,1.37,1.786,2.328,expert
36,1671108163968,15/12/2022 12:42:43,1671108159069,0,15/12/2022 12:42:39,109680,37,task-xjip,repeat-7g8d#1->-repeat-38fk#1,25970361,BLIND,7671893,NaN,complete,NaN,NaN,computer,Desktop or Laptop,Windows 10,Edge 108.0.1462.46,1280x720,1280x720,End of Day 1,SLS,90,A,Pass,End of Day 1,Pass,NaN,NaN,NaN,Pass,NaN,Pass,NaN,schedule_A,schedule_A,8,3,3,offer,Zone2,response_button_image,843.5,NaN,NaN,yellowBox.png,1,1,0,0,NaN,NaN,NaN,NaN,NaN,trial_left,yellowBox.png,yellowBox.png,redBox.png,al1_con.png,8,7,NaN,NaN,0.15,0.85,0,1,0,0,Volatile,Stable,3.269,1.37,1.786,2.328,expert
37,1671108165972,15/12/2022 12:42:45,1671108161065,0,15/12/2022 12:42:41,109680,37,task-xjip,repeat-7g8d#1->-repeat-38fk#1,25970361,BLIND,7671893,NaN,complete,NaN,NaN,computer,Desktop or Laptop,Windows 10,Edge 108.0.1462.46,1280x720,1280x720,End of Day 1,SLS,90,A,Pass,End of Day 1,Pass,NaN,NaN,NaN,Pass,NaN,Pass,NaN,schedule_A,schedule_A,8,3,4,feedback_l,Zone7,timelimit_screen,1998.943,NaN,NaN,,NaN,0,1,0,NaN,NaN,1,NaN,NaN,trial_left,yellowBox.png,yellowBox.png,redBox.png,al1_con.png,8,7,NaN,NaN,0.15,0.85,0,1,0,0,Volatile,Stable,3.269,1.37,1.786,2.328,expert
38,1671108166120,15/12/2022 12:42:46,1671108161215,0,15/12/2022 12:42:41,109680,37,task-xjip,repeat-7g8d#1->-repeat-38fk#1,25970361,BLIND,7671893,NaN,complete,NaN,NaN,computer,Desktop or Laptop,Windows 10,Edge 108.0.1462.46,1280x720,1280x720,End of Day 1,SLS,90,A,Pass,End of Day 1,Pass,NaN,NaN,NaN,Pass,NaN,Pass,NaN,schedule_A,schedule_A,8,3,6,end,Zone1,timelimit_screen,150.275999999998,NaN,NaN,,NaN,0,1,0,NaN,NaN,1,NaN,NaN,trial_left,yellowBox.png,yellowBox.png,redBox.png,al1_con.png,8,7,NaN,NaN,0.15,0.85,0,1,0,0,Volatile,Stable,3.269,1.37,1.786,2.328,expert
39,1671108167799,15/12/2022 12:42:47,1671108162906,0,15/12/2022 12:42:42,109680,37,task-xjip,repeat-7g8d#1->-repeat-38fk#1,25970361,BLIND,7671893,NaN,complete,NaN,NaN,computer,Desktop or Laptop,Windows 10,Edge 108.0.1462.46,1280x720,1280x720,End of Day 1,SLS,90,A,Pass,End of Day 1,Pass,NaN,NaN,NaN,Pass,NaN,Pass,NaN,schedule_A,schedule_A,9,4,1,Screen 1,Zone1,continue_button,1676.5,NaN,NaN,,NaN,0,1,0,NaN,NaN,NaN,NaN,NaN,trial_left,yellowBox.png,redBox.png,yellowBox.png,al1_con.png,9,8,NaN,NaN,0.15,0.85,0,0,1,1,Volatile,Stable,3.975,0.576,1.256,1.807,expert
40,1671108168826,15/12/2022 12:42:48,1671108163900,0,15/12/2022 12:42:43,109680,37,task-xjip,repeat-7g8d#1->-repeat-38fk#1,25970361,BLIND,7671893,NaN,complete,NaN,NaN,computer,Desktop or Laptop,Windows 10,Edge 108.0.1462.46,1280x720,1280x720,End of Day 1,SLS,90,A,Pass,End of Day 1,Pass,NaN,NaN,NaN,Pass,NaN,Pass,NaN,schedule_A,schedule_A,9,4,2,individual,Zone4,timelimit_screen,999.635999999999,NaN,NaN,,NaN,0,1,0,NaN,NaN,1,NaN,NaN,trial_left,yellowBox.png,redBox.png,yellowBox.png,al1_con.png,9,8,NaN,NaN,0.15,0.85,0,0,1,1,Volatile,Stable,3.975,0.576,1.256,1.807,expert
41,1671108169632,15/12/2022 12:42:49,1671108164724,0,15/12/2022 12:42:44,109680,37,task-xjip,repeat-7g8d#1->-repeat-38fk#1,25970361,BLIND,7671893,NaN,complete,NaN,NaN,computer,Desktop or Laptop,Windows 10,Edge 108.0.1462.46,1280x720,1280x720,End of Day 1,SLS,90,A,Pass,End of Day 1,Pass,NaN,NaN,NaN,Pass,NaN,Pass,NaN,schedule_A,schedule_A,9,4,3,offer,Zone2,response_button_image,815.800000190735,NaN,NaN,redBox.png,1,0,1,0,NaN,NaN,NaN,NaN,NaN,trial_left,yellowBox.png,redBox.png,yellowBox.png,al1_con.png,9,8,NaN,NaN,0.15,0.85,0,0,1,1,Volatile,Stable,3.975,0.576,1.256,1.807,expert
42,1671108171662,15/12/2022 12:42:51,1671108166715,0,15/12/2022 12:42:46,109680,37,task-xjip,repeat-7g8d#1->-repeat-38fk#1,25970361,BLIND,7671893,NaN,complete,NaN,NaN,computer,Desktop or Laptop,Windows 10,Edge 108.0.1462.46,1280x720,1280x720,End of Day 1,SLS,90,A,Pass,End of Day 1,Pass,NaN,NaN,NaN,Pass,NaN,Pass,NaN,schedule_A,schedule_A,9,4,4,feedback_l,Zone7,timelimit_screen,1999.53000000001,NaN,NaN,,NaN,0,1,0,NaN,NaN,1,NaN,NaN,trial_left,yellowBox.png,redBox.png,yellowBox.png,al1_con.png,9,8,NaN,NaN,0.15,0.85,0,0,1,1,Volatile,Stable,3.975,0.576,1.256,1.807,expert
43,1671108171864,15/12/2022 12:42:51,1671108166865,0,15/12/2022 12:42:46,109680,37,task-xjip,repeat-7g8d#1->-repeat-38fk#1,25970361,BLIND,7671893,NaN,complete,NaN,NaN,computer,Desktop or Laptop,Windows 10,Edge 108.0.1462.46,1280x720,1280x720,End of Day 1,SLS,90,A,Pass,End of Day 1,Pass,NaN,NaN,NaN,Pass,NaN,Pass,NaN,schedule_A,schedule_A,9,4,6,end,Zone1,timelimit_screen,150.089,NaN,NaN,,NaN,0,1,0,NaN,NaN,1,NaN,NaN,trial_left,yellowBox.png,redBox.png,yellowBox.png,al1_con.png,9,8,NaN,NaN,0.15,0.85,0,0,1,1,Volatile,Stable,3.975,0.576,1.256,1.807,expert
44,1671108172779,15/12/2022 12:42:52,1671108167867,0,15/12/2022 12:42:47,109680,37,task-xjip,repeat-7g8d#1->-repeat-38fk#1,25970361,BLIND,7671893,NaN,complete,NaN,NaN,computer,Desktop or Laptop,Windows 10,Edge 108.0.1462.46,1280x720,1280x720,End of Day 1,SLS,90,A,Pass,End of Day 1,Pass,NaN,NaN,NaN,Pass,NaN,Pass,NaN,schedule_A,schedule_A,10,5,1,Screen 1,Zone1,continue_button,987.200000286102,NaN,NaN,,NaN,0,1,0,NaN,NaN,NaN,NaN,NaN,trial_right,redBox.png,redBox.png,yellowBox.png,al1_con.png,10,9,NaN,NaN,0.15,0.85,1,0,0,1,Volatile,Stable,3.798,1.055,1.559,2.042,expert
45,1671108173768,15/12/2022 12:42:53,1671108168864,0,15/12/2022 12:42:48,109680,37,task-xjip,repeat-7g8d#1->-repeat-38fk#1,25970361,BLIND,7671893,NaN,complete,NaN,NaN,computer,Desktop or Laptop,Windows 10,Edge 108.0.1462.46,1280x720,1280x720,End of Day 1,SLS,90,A,Pass,End of Day 1,Pass,NaN,NaN,NaN,Pass,NaN,Pass,NaN,schedule_A,schedule_A,10,5,2,individual,Zone4,timelimit_screen,1000.07200000001,NaN,NaN,,NaN,0,1,0,NaN,NaN,1,NaN,NaN,trial_right,redBox.png,redBox.png,yellowBox.png,al1_con.png,10,9,NaN,NaN,0.15,0.85,1,0,0,1,Volatile,Stable,3.798,1.055,1.559,2.042,expert
46,1671108175347,15/12/2022 12:42:55,1671108170400,0,15/12/2022 12:42:50,109680,37,task-xjip,repeat-7g8d#1->-repeat-38fk#1,25970361,BLIND,7671893,NaN,complete,NaN,NaN,computer,Desktop or Laptop,Windows 10,Edge 108.0.1462.46,1280x720,1280x720,End of Day 1,SLS,90,A,Pass,End of Day 1,Pass,NaN,NaN,NaN,Pass,NaN,Pass,NaN,schedule_A,schedule_A,10,5,3,offer,Zone2,response_button_image,1528.59999990463,NaN,NaN,redBox.png,1,1,0,0,NaN,NaN,NaN,NaN,NaN,trial_right,redBox.png,redBox.png,yellowBox.png,al1_con.png,10,9,NaN,NaN,0.15,0.85,1,0,0,1,Volatile,Stable,3.798,1.055,1.559,2.042,expert
47,1671108177338,15/12/2022 12:42:57,1671108172396,0,15/12/2022 12:42:52,109680,37,task-xjip,repeat-7g8d#1->-repeat-38fk#1,25970361,BLIND,7671893,NaN,complete,NaN,NaN,computer,Desktop or Laptop,Windows 10,Edge 108.0.1462.46,1280x720,1280x720,End of Day 1,SLS,90,A,Pass,End of Day 1,Pass,NaN,NaN,NaN,Pass,NaN,Pass,NaN,schedule_A,schedule_A,10,5,4,feedback_l,Zone7,timelimit_screen,1999.302,NaN,NaN,,NaN,0,1,0,NaN,NaN,1,NaN,NaN,trial_right,redBox.png,redBox.png,yellowBox.png,al1_con.png,10,9,NaN,NaN,0.15,0.85,1,0,0,1,Volatile,Stable,3.798,1.055,1.559,2.042,expert
48,1671108177458,15/12/2022 12:42:57,1671108172546,0,15/12/2022 12:42:52,109680,37,task-xjip,repeat-7g8d#1->-repeat-38fk#1,25970361,BLIND,7671893,NaN,complete,NaN,NaN,computer,Desktop or Laptop,Windows 10,Edge 108.0.1462.46,1280x720,1280x720,End of Day 1,SLS,90,A,Pass,End of Day 1,Pass,NaN,NaN,NaN,Pass,NaN,Pass,NaN,schedule_A,schedule_A,10,5,6,end,Zone1,timelimit_screen,149.882000000012,NaN,NaN,,NaN,0,1,0,NaN,NaN,1,NaN,NaN,trial_right,redBox.png,redBox.png,yellowBox.png,al1_con.png,10,9,NaN,NaN,0.15,0.85,1,0,0,1,Volatile,Stable,3.798,1.055,1.559,2.042,expert
49,1671108178531,15/12/2022 12:42:58,1671108173628,0,15/12/2022 12:42:53,109680,37,task-xjip,repeat-7g8d#1->-repeat-38fk#1,25970361,BLIND,7671893,NaN,complete,NaN,NaN,computer,Desktop or Laptop,Windows 10,Edge 108.0.1462.46,1280x720,1280x720,End of Day 1,SLS,90,A,Pass,End of Day 1,Pass,NaN,NaN,NaN,Pass,NaN,Pass,NaN,schedule_A,schedule_A,11,6,1,Screen 1,Zone1,continue_button,1069.69999980927,NaN,NaN,,NaN,0,1,0,NaN,NaN,NaN,NaN,NaN,trial_right,yellowBox.png,redBox.png,yellowBox.png,al1_con.png,21,10,NaN,NaN,0.15,0.85,0,1,0,1,Volatile,Stable,1.857,0.5,1.294,2.916,expert
50,1671108179518,15/12/2022 12:42:59,1671108174614,0,15/12/2022 12:42:54,109680,37,task-xjip,repeat-7g8d#1->-repeat-38fk#1,25970361,BLIND,7671893,NaN,complete,NaN,NaN,computer,Desktop or Laptop,Windows 10,Edge 108.0.1462.46,1280x720,1280x720,End of Day 1,SLS,90,A,Pass,End of Day 1,Pass,NaN,NaN,NaN,Pass,NaN,Pass,NaN,schedule_A,schedule_A,11,6,2,individual,Zone4,timelimit_screen,999.896999999997,NaN,NaN,,NaN,0,1,0,NaN,NaN,1,NaN,NaN,trial_right,yellowBox.png,redBox.png,yellowBox.png,al1_con.png,21,10,NaN,NaN,0.15,0.85,0,1,0,1,Volatile,Stable,1.857,0.5,1.294,2.916,expert
51,1671108180433,15/12/2022 12:43:00,1671108175501,0,15/12/2022 12:42:55,109680,37,task-xjip,repeat-7g8d#1->-repeat-38fk#1,25970361,BLIND,7671893,NaN,complete,NaN,NaN,computer,Desktop or Laptop,Windows 10,Edge 108.0.1462.46,1280x720,1280x720,End of Day 1,SLS,90,A,Pass,End of Day 1,Pass,NaN,NaN,NaN,Pass,NaN,Pass,NaN,schedule_A,schedule_A,11,6,3,offer,Zone2,response_button_image,878.400000095367,NaN,NaN,redBox.png,1,0,1,0,NaN,NaN,NaN,NaN,NaN,trial_right,yellowBox.png,redBox.png,yellowBox.png,al1_con.png,21,10,NaN,NaN,0.15,0.85,0,1,0,1,Volatile,Stable,1.857,0.5,1.294,2.916,expert
52,1671108182396,15/12/2022 12:43:02,1671108177495,0,15/12/2022 12:42:57,109680,37,task-xjip,repeat-7g8d#1->-repeat-38fk#1,25970361,BLIND,7671893,NaN,complete,NaN,NaN,computer,Desktop or Laptop,Windows 10,Edge 108.0.1462.46,1280x720,1280x720,End of Day 1,SLS,90,A,Pass,End of Day 1,Pass,NaN,NaN,NaN,Pass,NaN,Pass,NaN,schedule_A,schedule_A,11,6,4,feedback_l,Zone7,timelimit_screen,2000.003,NaN,NaN,,NaN,0,1,0,NaN,NaN,1,NaN,NaN,trial_right,yellowBox.png,redBox.png,yellowBox.png,al1_con.png,21,10,NaN,NaN,0.15,0.85,0,1,0,1,Volatile,Stable,1.857,0.5,1.294,2.916,expert
53,1671108182551,15/12/2022 12:43:02,1671108177645,0,15/12/2022 12:42:57,109680,37,task-xjip,repeat-7g8d#1->-repeat-38fk#1,25970361,BLIND,7671893,NaN,complete,NaN,NaN,computer,Desktop or Laptop,Windows 10,Edge 108.0.1462.46,1280x720,1280x720,End of Day 1,SLS,90,A,Pass,End of Day 1,Pass,NaN,NaN,NaN,Pass,NaN,Pass,NaN,schedule_A,schedule_A,11,6,6,end,Zone1,timelimit_screen,149.715000000011,NaN,NaN,,NaN,0,1,0,NaN,NaN,1,NaN,NaN,trial_right,yellowBox.png,redBox.png,yellowBox.png,al1_con.png,21,10,NaN,NaN,0.15,0.85,0,1,0,1,Volatile,Stable,1.857,0.5,1.294,2.916,expert
54,1671108183795,15/12/2022 12:43:03,1671108178886,0,15/12/2022 12:42:58,109680,37,task-xjip,repeat-7g8d#1->-repeat-38fk#1,25970361,BLIND,7671893,NaN,complete,NaN,NaN,computer,Desktop or Laptop,Windows 10,Edge 108.0.1462.46,1280x720,1280x720,End of Day 1,SLS,90,A,Pass,End of Day 1,Pass,NaN,NaN,NaN,Pass,NaN,Pass,NaN,schedule_A,schedule_A,12,5,1,Screen 1,Zone1,continue_button,1226.69999980927,NaN,NaN,,NaN,0,1,0,NaN,NaN,NaN,NaN,NaN,trial_left,redBox.png,redBox.png,yellowBox.png,al1_con.png,22,11,NaN,NaN,0.85,0.85,1,1,1,1,Volatile,Stable,1.126,1.849,1.483,1.689,expert
55,1671108184778,15/12/2022 12:43:04,1671108179878,0,15/12/2022 12:42:59,109680,37,task-xjip,repeat-7g8d#1->-repeat-38fk#1,25970361,BLIND,7671893,NaN,complete,NaN,NaN,computer,Desktop or Laptop,Windows 10,Edge 108.0.1462.46,1280x720,1280x720,End of Day 1,SLS,90,A,Pass,End of Day 1,Pass,NaN,NaN,NaN,Pass,NaN,Pass,NaN,schedule_A,schedule_A,12,5,2,individual,Zone4,timelimit_screen,999.428,NaN,NaN,,NaN,0,1,0,NaN,NaN,1,NaN,NaN,trial_left,redBox.png,redBox.png,yellowBox.png,al1_con.png,22,11,NaN,NaN,0.85,0.85,1,1,1,1,Volatile,Stable,1.126,1.849,1.483,1.689,expert
56,1671108185707,15/12/2022 12:43:05,1671108180796,0,15/12/2022 12:43:00,109680,37,task-xjip,repeat-7g8d#1->-repeat-38fk#1,25970361,BLIND,7671893,NaN,complete,NaN,NaN,computer,Desktop or Laptop,Windows 10,Edge 108.0.1462.46,1280x720,1280x720,End of Day 1,SLS,90,A,Pass,End of Day 1,Pass,NaN,NaN,NaN,Pass,NaN,Pass,NaN,schedule_A,schedule_A,12,5,3,offer,Zone2,response_button_image,909.700000286102,NaN,NaN,redBox.png,1,1,0,0,NaN,NaN,NaN,NaN,NaN,trial_left,redBox.png,redBox.png,yellowBox.png,al1_con.png,22,11,NaN,NaN,0.85,0.85,1,1,1,1,Volatile,Stable,1.126,1.849,1.483,1.689,expert
57,1671108187702,15/12/2022 12:43:07,1671108182794,0,15/12/2022 12:43:02,109680,37,task-xjip,repeat-7g8d#1->-repeat-38fk#1,25970361,BLIND,7671893,NaN,complete,NaN,NaN,computer,Desktop or Laptop,Windows 10,Edge 108.0.1462.46,1280x720,1280x720,End of Day 1,SLS,90,A,Pass,End of Day 1,Pass,NaN,NaN,NaN,Pass,NaN,Pass,NaN,schedule_A,schedule_A,12,5,4,feedback_l,Zone7,timelimit_screen,1999.568,NaN,NaN,,NaN,0,1,0,NaN,NaN,1,NaN,NaN,trial_left,redBox.png,redBox.png,yellowBox.png,al1_con.png,22,11,NaN,NaN,0.85,0.85,1,1,1,1,Volatile,Stable,1.126,1.849,1.483,1.689,expert
58,1671108187869,15/12/2022 12:43:07,1671108182945,0,15/12/2022 12:43:02,109680,37,task-xjip,repeat-7g8d#1->-repeat-38fk#1,25970361,BLIND,7671893,NaN,complete,NaN,NaN,computer,Desktop or Laptop,Windows 10,Edge 108.0.1462.46,1280x720,1280x720,End of Day 1,SLS,90,A,Pass,End of Day 1,Pass,NaN,NaN,NaN,Pass,NaN,Pass,NaN,schedule_A,schedule_A,12,5,6,end,Zone1,timelimit_screen,150.267999999996,NaN,NaN,,NaN,0,1,0,NaN,NaN,1,NaN,NaN,trial_left,redBox.png,redBox.png,yellowBox.png,al1_con.png,22,11,NaN,NaN,0.85,0.85,1,1,1,1,Volatile,Stable,1.126,1.849,1.483,1.689,expert
59,1671108188898,15/12/2022 12:43:08,1671108183999,0,15/12/2022 12:43:03,109680,37,task-xjip,repeat-7g8d#1->-repeat-38fk#1,25970361,BLIND,7671893,NaN,complete,NaN,NaN,computer,Desktop or Laptop,Windows 10,Edge 108.0.1462.46,1280x720,1280x720,End of Day 1,SLS,90,A,Pass,End of Day 1,Pass,NaN,NaN,NaN,Pass,NaN,Pass,NaN,schedule_A,schedule_A,13,7,1,Screen 1,Zone1,continue_button,1040.2999997139,NaN,NaN,,NaN,0,1,0,NaN,NaN,NaN,NaN,NaN,trial_right,redBox.png,yellowBox.png,redBox.png,al1_con.png,23,12,NaN,NaN,0.85,0.85,1,1,1,0,Volatile,Stable,2.361,0.992,0.5,1.975,expert
60,1671108189907,15/12/2022 12:43:09,1671108184994,0,15/12/2022 12:43:04,109680,37,task-xjip,repeat-7g8d#1->-repeat-38fk#1,25970361,BLIND,7671893,NaN,complete,NaN,NaN,computer,Desktop or Laptop,Windows 10,Edge 108.0.1462.46,1280x720,1280x720,End of Day 1,SLS,90,A,Pass,End of Day 1,Pass,NaN,NaN,NaN,Pass,NaN,Pass,NaN,schedule_A,schedule_A,13,7,2,individual,Zone4,timelimit_screen,999.816999999995,NaN,NaN,,NaN,0,1,0,NaN,NaN,1,NaN,NaN,trial_right,redBox.png,yellowBox.png,redBox.png,al1_con.png,23,12,NaN,NaN,0.85,0.85,1,1,1,0,Volatile,Stable,2.361,0.992,0.5,1.975,expert
61,1671108190798,15/12/2022 12:43:10,1671108185897,0,15/12/2022 12:43:05,109680,37,task-xjip,repeat-7g8d#1->-repeat-38fk#1,25970361,BLIND,7671893,NaN,complete,NaN,NaN,computer,Desktop or Laptop,Windows 10,Edge 108.0.1462.46,1280x720,1280x720,End of Day 1,SLS,90,A,Pass,End of Day 1,Pass,NaN,NaN,NaN,Pass,NaN,Pass,NaN,schedule_A,schedule_A,13,7,3,offer,Zone3,response_button_image,894.099999904633,NaN,NaN,redBox.png,1,1,0,0,NaN,NaN,NaN,NaN,NaN,trial_right,redBox.png,yellowBox.png,redBox.png,al1_con.png,23,12,NaN,NaN,0.85,0.85,1,1,1,0,Volatile,Stable,2.361,0.992,0.5,1.975,expert
62,1671108192827,15/12/2022 12:43:12,1671108187893,0,15/12/2022 12:43:07,109680,37,task-xjip,repeat-7g8d#1->-repeat-38fk#1,25970361,BLIND,7671893,NaN,complete,NaN,NaN,computer,Desktop or Laptop,Windows 10,Edge 108.0.1462.46,1280x720,1280x720,End of Day 1,SLS,90,A,Pass,End of Day 1,Pass,NaN,NaN,NaN,Pass,NaN,Pass,NaN,schedule_A,schedule_A,13,7,5,feedback_r,Zone7,timelimit_screen,1999.523,NaN,NaN,,NaN,0,1,0,NaN,NaN,1,NaN,NaN,trial_right,redBox.png,yellowBox.png,redBox.png,al1_con.png,23,12,NaN,NaN,0.85,0.85,1,1,1,0,Volatile,Stable,2.361,0.992,0.5,1.975,expert
63,1671108192966,15/12/2022 12:43:12,1671108188044,0,15/12/2022 12:43:08,109680,37,task-xjip,repeat-7g8d#1->-repeat-38fk#1,25970361,BLIND,7671893,NaN,complete,NaN,NaN,computer,Desktop or Laptop,Windows 10,Edge 108.0.1462.46,1280x720,1280x720,End of Day 1,SLS,90,A,Pass,End of Day 1,Pass,NaN,NaN,NaN,Pass,NaN,Pass,NaN,schedule_A,schedule_A,13,7,6,end,Zone1,timelimit_screen,149.95199999999,NaN,NaN,,NaN,0,1,0,NaN,NaN,1,NaN,NaN,trial_right,redBox.png,yellowBox.png,redBox.png,al1_con.png,23,12,NaN,NaN,0.85,0.85,1,1,1,0,Volatile,Stable,2.361,0.992,0.5,1.975,expert
64,1671108193802,15/12/2022 12:43:13,1671108188893,0,15/12/2022 12:43:08,109680,37,task-xjip,repeat-7g8d#1->-repeat-38fk#1,25970361,BLIND,7671893,NaN,complete,NaN,NaN,computer,Desktop or Laptop,Windows 10,Edge 108.0.1462.46,1280x720,1280x720,End of Day 1,SLS,90,A,Pass,End of Day 1,Pass,NaN,NaN,NaN,Pass,NaN,Pass,NaN,schedule_A,schedule_A,14,8,1,Screen 1,Zone1,continue_button,835.900000095367,NaN,NaN,,NaN,0,1,0,NaN,NaN,NaN,NaN,NaN,trial_right,redBox.png,redBox.png,yellowBox.png,al1_con.png,24,13,NaN,NaN,0.85,0.85,1,0,0,1,Volatile,Stable,1.05,1.95,1.319,1.487,expert
65,1671108194843,15/12/2022 12:43:14,1671108189876,0,15/12/2022 12:43:09,109680,37,task-xjip,repeat-7g8d#1->-repeat-38fk#1,25970361,BLIND,7671893,NaN,complete,NaN,NaN,computer,Desktop or Laptop,Windows 10,Edge 108.0.1462.46,1280x720,1280x720,End of Day 1,SLS,90,A,Pass,End of Day 1,Pass,NaN,NaN,NaN,Pass,NaN,Pass,NaN,schedule_A,schedule_A,14,8,2,individual,Zone4,timelimit_screen,999.564999999988,NaN,NaN,,NaN,0,1,0,NaN,NaN,1,NaN,NaN,trial_right,redBox.png,redBox.png,yellowBox.png,al1_con.png,24,13,NaN,NaN,0.85,0.85,1,0,0,1,Volatile,Stable,1.05,1.95,1.319,1.487,expert
66,1671108195625,15/12/2022 12:43:15,1671108190715,0,15/12/2022 12:43:10,109680,37,task-xjip,repeat-7g8d#1->-repeat-38fk#1,25970361,BLIND,7671893,NaN,complete,NaN,NaN,computer,Desktop or Laptop,Windows 10,Edge 108.0.1462.46,1280x720,1280x720,End of Day 1,SLS,90,A,Pass,End of Day 1,Pass,NaN,NaN,NaN,Pass,NaN,Pass,NaN,schedule_A,schedule_A,14,8,3,offer,Zone3,response_button_image,829.099999904633,NaN,NaN,yellowBox.png,1,0,1,0,NaN,NaN,NaN,NaN,NaN,trial_right,redBox.png,redBox.png,yellowBox.png,al1_con.png,24,13,NaN,NaN,0.85,0.85,1,0,0,1,Volatile,Stable,1.05,1.95,1.319,1.487,expert
67,1671108197608,15/12/2022 12:43:17,1671108192709,0,15/12/2022 12:43:12,109680,37,task-xjip,repeat-7g8d#1->-repeat-38fk#1,25970361,BLIND,7671893,NaN,complete,NaN,NaN,computer,Desktop or Laptop,Windows 10,Edge 108.0.1462.46,1280x720,1280x720,End of Day 1,SLS,90,A,Pass,End of Day 1,Pass,NaN,NaN,NaN,Pass,NaN,Pass,NaN,schedule_A,schedule_A,14,8,5,feedback_r,Zone7,timelimit_screen,1999.73,NaN,NaN,,NaN,0,1,0,NaN,NaN,1,NaN,NaN,trial_right,redBox.png,redBox.png,yellowBox.png,al1_con.png,24,13,NaN,NaN,0.85,0.85,1,0,0,1,Volatile,Stable,1.05,1.95,1.319,1.487,expert
68,1671108197760,15/12/2022 12:43:17,1671108192860,0,15/12/2022 12:43:12,109680,37,task-xjip,repeat-7g8d#1->-repeat-38fk#1,25970361,BLIND,7671893,NaN,complete,NaN,NaN,computer,Desktop or Laptop,Windows 10,Edge 108.0.1462.46,1280x720,1280x720,End of Day 1,SLS,90,A,Pass,End of Day 1,Pass,NaN,NaN,NaN,Pass,NaN,Pass,NaN,schedule_A,schedule_A,14,8,6,end,Zone1,timelimit_screen,150.277000000002,NaN,NaN,,NaN,0,1,0,NaN,NaN,1,NaN,NaN,trial_right,redBox.png,redBox.png,yellowBox.png,al1_con.png,24,13,NaN,NaN,0.85,0.85,1,0,0,1,Volatile,Stable,1.05,1.95,1.319,1.487,expert
69,1671108198952,15/12/2022 12:43:18,1671108194053,0,15/12/2022 12:43:14,109680,37,task-xjip,repeat-7g8d#1->-repeat-38fk#1,25970361,BLIND,7671893,NaN,complete,NaN,NaN,computer,Desktop or Laptop,Windows 10,Edge 108.0.1462.46,1280x720,1280x720,End of Day 1,SLS,90,A,Pass,End of Day 1,Pass,NaN,NaN,NaN,Pass,NaN,Pass,NaN,schedule_A,schedule_A,15,9,1,Screen 1,Zone1,continue_button,1179.09999990463,NaN,NaN,,NaN,0,1,0,NaN,NaN,NaN,NaN,NaN,trial_right,redBox.png,yellowBox.png,redBox.png,al1_con.png,25,14,NaN,NaN,0.85,0.85,1,1,1,0,Volatile,Stable,3.395,0.84,0.803,1.252,expert
70,1671108199943,15/12/2022 12:43:19,1671108195043,0,15/12/2022 12:43:15,109680,37,task-xjip,repeat-7g8d#1->-repeat-38fk#1,25970361,BLIND,7671893,NaN,complete,NaN,NaN,computer,Desktop or Laptop,Windows 10,Edge 108.0.1462.46,1280x720,1280x720,End of Day 1,SLS,90,A,Pass,End of Day 1,Pass,NaN,NaN,NaN,Pass,NaN,Pass,NaN,schedule_A,schedule_A,15,9,2,individual,Zone4,timelimit_screen,999.759999999995,NaN,NaN,,NaN,0,1,0,NaN,NaN,1,NaN,NaN,trial_right,redBox.png,yellowBox.png,redBox.png,al1_con.png,25,14,NaN,NaN,0.85,0.85,1,1,1,0,Volatile,Stable,3.395,0.84,0.803,1.252,expert
71,1671108201556,15/12/2022 12:43:21,1671108196656,0,15/12/2022 12:43:16,109680,37,task-xjip,repeat-7g8d#1->-repeat-38fk#1,25970361,BLIND,7671893,NaN,complete,NaN,NaN,computer,Desktop or Laptop,Windows 10,Edge 108.0.1462.46,1280x720,1280x720,End of Day 1,SLS,90,A,Pass,End of Day 1,Pass,NaN,NaN,NaN,Pass,NaN,Pass,NaN,schedule_A,schedule_A,15,9,3,offer,Zone2,response_button_image,1604.69999980927,NaN,NaN,yellowBox.png,1,0,1,0,NaN,NaN,NaN,NaN,NaN,trial_right,redBox.png,yellowBox.png,redBox.png,al1_con.png,25,14,NaN,NaN,0.85,0.85,1,1,1,0,Volatile,Stable,3.395,0.84,0.803,1.252,expert
72,1671108203545,15/12/2022 12:43:23,1671108198641,0,15/12/2022 12:43:18,109680,37,task-xjip,repeat-7g8d#1->-repeat-38fk#1,25970361,BLIND,7671893,NaN,complete,NaN,NaN,computer,Desktop or Laptop,Windows 10,Edge 108.0.1462.46,1280x720,1280x720,End of Day 1,SLS,90,A,Pass,End of Day 1,Pass,NaN,NaN,NaN,Pass,NaN,Pass,NaN,schedule_A,schedule_A,15,9,4,feedback_l,Zone7,timelimit_screen,1999.91099999999,NaN,NaN,,NaN,0,1,0,NaN,NaN,1,NaN,NaN,trial_right,redBox.png,yellowBox.png,redBox.png,al1_con.png,25,14,NaN,NaN,0.85,0.85,1,1,1,0,Volatile,Stable,3.395,0.84,0.803,1.252,expert
73,1671108203727,15/12/2022 12:43:23,1671108198791,0,15/12/2022 12:43:18,109680,37,task-xjip,repeat-7g8d#1->-repeat-38fk#1,25970361,BLIND,7671893,NaN,complete,NaN,NaN,computer,Desktop or Laptop,Windows 10,Edge 108.0.1462.46,1280x720,1280x720,End of Day 1,SLS,90,A,Pass,End of Day 1,Pass,NaN,NaN,NaN,Pass,NaN,Pass,NaN,schedule_A,schedule_A,15,9,6,end,Zone1,timelimit_screen,150.054000000004,NaN,NaN,,NaN,0,1,0,NaN,NaN,1,NaN,NaN,trial_right,redBox.png,yellowBox.png,redBox.png,al1_con.png,25,14,NaN,NaN,0.85,0.85,1,1,1,0,Volatile,Stable,3.395,0.84,0.803,1.252,expert
74,1671108205183,15/12/2022 12:43:25,1671108200283,0,15/12/2022 12:43:20,109680,37,task-xjip,repeat-7g8d#1->-repeat-38fk#1,25970361,BLIND,7671893,NaN,complete,NaN,NaN,computer,Desktop or Laptop,Windows 10,Edge 108.0.1462.46,1280x720,1280x720,End of Day 1,SLS,90,A,Pass,End of Day 1,Pass,NaN,NaN,NaN,Pass,NaN,Pass,NaN,schedule_A,schedule_A,16,10,1,Screen 1,Zone1,continue_button,1477.40000009537,NaN,NaN,,NaN,0,1,0,NaN,NaN,NaN,NaN,NaN,trial_right,yellowBox.png,redBox.png,yellowBox.png,al1_con.png,26,15,NaN,NaN,0.85,0.85,0,1,0,1,Volatile,Stable,2.689,1.067,1.697,2.731,expert
75,1671108206348,15/12/2022 12:43:26,1671108201274,0,15/12/2022 12:43:21,109680,37,task-xjip,repeat-7g8d#1->-repeat-38fk#1,25970361,BLIND,7671893,NaN,complete,NaN,NaN,computer,Desktop or Laptop,Windows 10,Edge 108.0.1462.46,1280x720,1280x720,End of Day 1,SLS,90,A,Pass,End of Day 1,Pass,NaN,NaN,NaN,Pass,NaN,Pass,NaN,schedule_A,schedule_A,16,10,2,individual,Zone4,timelimit_screen,1000.02500000001,NaN,NaN,,NaN,0,1,0,NaN,NaN,1,NaN,NaN,trial_right,yellowBox.png,redBox.png,yellowBox.png,al1_con.png,26,15,NaN,NaN,0.85,0.85,0,1,0,1,Volatile,Stable,2.689,1.067,1.697,2.731,expert
76,1671108207105,15/12/2022 12:43:27,1671108202194,0,15/12/2022 12:43:22,109680,37,task-xjip,repeat-7g8d#1->-repeat-38fk#1,25970361,BLIND,7671893,NaN,complete,NaN,NaN,computer,Desktop or Laptop,Windows 10,Edge 108.0.1462.46,1280x720,1280x720,End of Day 1,SLS,90,A,Pass,End of Day 1,Pass,NaN,NaN,NaN,Pass,NaN,Pass,NaN,schedule_A,schedule_A,16,10,3,offer,Zone3,response_button_image,911.60000038147,NaN,NaN,yellowBox.png,1,1,0,0,NaN,NaN,NaN,NaN,NaN,trial_right,yellowBox.png,redBox.png,yellowBox.png,al1_con.png,26,15,NaN,NaN,0.85,0.85,0,1,0,1,Volatile,Stable,2.689,1.067,1.697,2.731,expert
77,1671108209088,15/12/2022 12:43:29,1671108204190,0,15/12/2022 12:43:24,109680,37,task-xjip,repeat-7g8d#1->-repeat-38fk#1,25970361,BLIND,7671893,NaN,complete,NaN,NaN,computer,Desktop or Laptop,Windows 10,Edge 108.0.1462.46,1280x720,1280x720,End of Day 1,SLS,90,A,Pass,End of Day 1,Pass,NaN,NaN,NaN,Pass,NaN,Pass,NaN,schedule_A,schedule_A,16,10,5,feedback_r,Zone7,timelimit_screen,1999.66200000001,NaN,NaN,,NaN,0,1,0,NaN,NaN,1,NaN,NaN,trial_right,yellowBox.png,redBox.png,yellowBox.png,al1_con.png,26,15,NaN,NaN,0.85,0.85,0,1,0,1,Volatile,Stable,2.689,1.067,1.697,2.731,expert
78,1671108209310,15/12/2022 12:43:29,1671108204340,0,15/12/2022 12:43:24,109680,37,task-xjip,repeat-7g8d#1->-repeat-38fk#1,25970361,BLIND,7671893,NaN,complete,NaN,NaN,computer,Desktop or Laptop,Windows 10,Edge 108.0.1462.46,1280x720,1280x720,End of Day 1,SLS,90,A,Pass,End of Day 1,Pass,NaN,NaN,NaN,Pass,NaN,Pass,NaN,schedule_A,schedule_A,16,10,6,end,Zone1,timelimit_screen,149.922999999995,NaN,NaN,,NaN,0,1,0,NaN,NaN,1,NaN,NaN,trial_right,yellowBox.png,redBox.png,yellowBox.png,al1_con.png,26,15,NaN,NaN,0.85,0.85,0,1,0,1,Volatile,Stable,2.689,1.067,1.697,2.731,expert
79,1671108210483,15/12/2022 12:43:30,1671108205580,0,15/12/2022 12:43:25,109680,37,task-xjip,repeat-7g8d#1->-repeat-38fk#1,25970361,BLIND,7671893,NaN,complete,NaN,NaN,computer,Desktop or Laptop,Windows 10,Edge 108.0.1462.46,1280x720,1280x720,End of Day 1,SLS,90,A,Pass,End of Day 1,Pass,NaN,NaN,NaN,Pass,NaN,Pass,NaN,schedule_A,schedule_A,17,6,1,Screen 1,Zone1,continue_button,1222.39999961853,NaN,NaN,,NaN,0,1,0,NaN,NaN,NaN,NaN,NaN,trial_left,yellowBox.png,yellowBox.png,redBox.png,al1_con.png,27,16,NaN,NaN,0.15,0.85,0,1,0,0,Volatile,Stable,1.378,0.689,0.878,2.076,expert
80,1671108211491,15/12/2022 12:43:31,1671108206573,0,15/12/2022 12:43:26,109680,37,task-xjip,repeat-7g8d#1->-repeat-38fk#1,25970361,BLIND,7671893,NaN,complete,NaN,NaN,computer,Desktop or Laptop,Windows 10,Edge 108.0.1462.46,1280x720,1280x720,End of Day 1,SLS,90,A,Pass,End of Day 1,Pass,NaN,NaN,NaN,Pass,NaN,Pass,NaN,schedule_A,schedule_A,17,6,2,individual,Zone4,timelimit_screen,1000.33500000001,NaN,NaN,,NaN,0,1,0,NaN,NaN,1,NaN,NaN,trial_left,yellowBox.png,yellowBox.png,redBox.png,al1_con.png,27,16,NaN,NaN,0.15,0.85,0,1,0,0,Volatile,Stable,1.378,0.689,0.878,2.076,expert
81,1671108212220,15/12/2022 12:43:32,1671108207322,0,15/12/2022 12:43:27,109680,37,task-xjip,repeat-7g8d#1->-repeat-38fk#1,25970361,BLIND,7671893,NaN,complete,NaN,NaN,computer,Desktop or Laptop,Windows 10,Edge 108.0.1462.46,1280x720,1280x720,End of Day 1,SLS,90,A,Pass,End of Day 1,Pass,NaN,NaN,NaN,Pass,NaN,Pass,NaN,schedule_A,schedule_A,17,6,3,offer,Zone2,response_button_image,739,NaN,NaN,yellowBox.png,1,1,0,0,NaN,NaN,NaN,NaN,NaN,trial_left,yellowBox.png,yellowBox.png,redBox.png,al1_con.png,27,16,NaN,NaN,0.15,0.85,0,1,0,0,Volatile,Stable,1.378,0.689,0.878,2.076,expert
82,1671108214214,15/12/2022 12:43:34,1671108209305,0,15/12/2022 12:43:29,109680,37,task-xjip,repeat-7g8d#1->-repeat-38fk#1,25970361,BLIND,7671893,NaN,complete,NaN,NaN,computer,Desktop or Laptop,Windows 10,Edge 108.0.1462.46,1280x720,1280x720,End of Day 1,SLS,90,A,Pass,End of Day 1,Pass,NaN,NaN,NaN,Pass,NaN,Pass,NaN,schedule_A,schedule_A,17,6,4,feedback_l,Zone7,timelimit_screen,1999.74100000001,NaN,NaN,,NaN,0,1,0,NaN,NaN,1,NaN,NaN,trial_left,yellowBox.png,yellowBox.png,redBox.png,al1_con.png,27,16,NaN,NaN,0.15,0.85,0,1,0,0,Volatile,Stable,1.378,0.689,0.878,2.076,expert
83,1671108214352,15/12/2022 12:43:34,1671108209456,0,15/12/2022 12:43:29,109680,37,task-xjip,repeat-7g8d#1->-repeat-38fk#1,25970361,BLIND,7671893,NaN,complete,NaN,NaN,computer,Desktop or Laptop,Windows 10,Edge 108.0.1462.46,1280x720,1280x720,End of Day 1,SLS,90,A,Pass,End of Day 1,Pass,NaN,NaN,NaN,Pass,NaN,Pass,NaN,schedule_A,schedule_A,17,6,6,end,Zone1,timelimit_screen,150.277000000002,NaN,NaN,,NaN,0,1,0,NaN,NaN,1,NaN,NaN,trial_left,yellowBox.png,yellowBox.png,redBox.png,al1_con.png,27,16,NaN,NaN,0.15,0.85,0,1,0,0,Volatile,Stable,1.378,0.689,0.878,2.076,expert
84,1671108215633,15/12/2022 12:43:35,1671108210731,0,15/12/2022 12:43:30,109680,37,task-xjip,repeat-7g8d#1->-repeat-38fk#1,25970361,BLIND,7671893,NaN,complete,NaN,NaN,computer,Desktop or Laptop,Windows 10,Edge 108.0.1462.46,1280x720,1280x720,End of Day 1,SLS,90,A,Pass,End of Day 1,Pass,NaN,NaN,NaN,Pass,NaN,Pass,NaN,schedule_A,schedule_A,18,11,1,Screen 1,Zone1,continue_button,1261.90000009537,NaN,NaN,,NaN,0,1,0,NaN,NaN,NaN,NaN,NaN,trial_right,yellowBox.png,redBox.png,yellowBox.png,al1_con.png,28,17,NaN,NaN,0.15,0.85,0,1,0,1,Volatile,Stable,2.714,0.739,1.975,1.134,expert
85,1671108216697,15/12/2022 12:43:36,1671108211722,0,15/12/2022 12:43:31,109680,37,task-xjip,repeat-7g8d#1->-repeat-38fk#1,25970361,BLIND,7671893,NaN,complete,NaN,NaN,computer,Desktop or Laptop,Windows 10,Edge 108.0.1462.46,1280x720,1280x720,End of Day 1,SLS,90,A,Pass,End of Day 1,Pass,NaN,NaN,NaN,Pass,NaN,Pass,NaN,schedule_A,schedule_A,18,11,2,individual,Zone4,timelimit_screen,1000.08199999999,NaN,NaN,,NaN,0,1,0,NaN,NaN,1,NaN,NaN,trial_right,yellowBox.png,redBox.png,yellowBox.png,al1_con.png,28,17,NaN,NaN,0.15,0.85,0,1,0,1,Volatile,Stable,2.714,0.739,1.975,1.134,expert
86,1671108217706,15/12/2022 12:43:37,1671108212790,0,15/12/2022 12:43:32,109680,37,task-xjip,repeat-7g8d#1->-repeat-38fk#1,25970361,BLIND,7671893,NaN,complete,NaN,NaN,computer,Desktop or Laptop,Windows 10,Edge 108.0.1462.46,1280x720,1280x720,End of Day 1,SLS,90,A,Pass,End of Day 1,Pass,NaN,NaN,NaN,Pass,NaN,Pass,NaN,schedule_A,schedule_A,18,11,3,offer,Zone3,response_button_image,1057.80000019073,NaN,NaN,yellowBox.png,1,1,0,0,NaN,NaN,NaN,NaN,NaN,trial_right,yellowBox.png,redBox.png,yellowBox.png,al1_con.png,28,17,NaN,NaN,0.15,0.85,0,1,0,1,Volatile,Stable,2.714,0.739,1.975,1.134,expert
87,1671108219703,15/12/2022 12:43:39,1671108214788,0,15/12/2022 12:43:34,109680,37,task-xjip,repeat-7g8d#1->-repeat-38fk#1,25970361,BLIND,7671893,NaN,complete,NaN,NaN,computer,Desktop or Laptop,Windows 10,Edge 108.0.1462.46,1280x720,1280x720,End of Day 1,SLS,90,A,Pass,End of Day 1,Pass,NaN,NaN,NaN,Pass,NaN,Pass,NaN,schedule_A,schedule_A,18,11,5,feedback_r,Zone7,timelimit_screen,1999.887,NaN,NaN,,NaN,0,1,0,NaN,NaN,1,NaN,NaN,trial_right,yellowBox.png,redBox.png,yellowBox.png,al1_con.png,28,17,NaN,NaN,0.15,0.85,0,1,0,1,Volatile,Stable,2.714,0.739,1.975,1.134,expert
88,1671108219853,15/12/2022 12:43:39,1671108214938,0,15/12/2022 12:43:34,109680,37,task-xjip,repeat-7g8d#1->-repeat-38fk#1,25970361,BLIND,7671893,NaN,complete,NaN,NaN,computer,Desktop or Laptop,Windows 10,Edge 108.0.1462.46,1280x720,1280x720,End of Day 1,SLS,90,A,Pass,End of Day 1,Pass,NaN,NaN,NaN,Pass,NaN,Pass,NaN,schedule_A,schedule_A,18,11,6,end,Zone1,timelimit_screen,150.035999999993,NaN,NaN,,NaN,0,1,0,NaN,NaN,1,NaN,NaN,trial_right,yellowBox.png,redBox.png,yellowBox.png,al1_con.png,28,17,NaN,NaN,0.15,0.85,0,1,0,1,Volatile,Stable,2.714,0.739,1.975,1.134,expert
89,1671108221674,15/12/2022 12:43:41,1671108216777,0,15/12/2022 12:43:36,109680,37,task-xjip,repeat-7g8d#1->-repeat-38fk#1,25970361,BLIND,7671893,NaN,complete,NaN,NaN,computer,Desktop or Laptop,Windows 10,Edge 108.0.1462.46,1280x720,1280x720,End of Day 1,SLS,90,A,Pass,End of Day 1,Pass,NaN,NaN,NaN,Pass,NaN,Pass,NaN,schedule_A,schedule_A,19,7,1,Screen 1,Zone1,continue_button,1825.69999980927,NaN,NaN,,NaN,0,1,0,NaN,NaN,NaN,NaN,NaN,trial_left,yellowBox.png,yellowBox.png,redBox.png,al1_con.png,29,18,NaN,NaN,0.15,0.85,0,1,0,0,Volatile,Stable,3.874,0.676,1.496,1.639,expert
90,1671108222670,15/12/2022 12:43:42,1671108217770,0,15/12/2022 12:43:37,109680,37,task-xjip,repeat-7g8d#1->-repeat-38fk#1,25970361,BLIND,7671893,NaN,complete,NaN,NaN,computer,Desktop or Laptop,Windows 10,Edge 108.0.1462.46,1280x720,1280x720,End of Day 1,SLS,90,A,Pass,End of Day 1,Pass,NaN,NaN,NaN,Pass,NaN,Pass,NaN,schedule_A,schedule_A,19,7,2,individual,Zone4,timelimit_screen,999.866999999998,NaN,NaN,,NaN,0,1,0,NaN,NaN,1,NaN,NaN,trial_left,yellowBox.png,yellowBox.png,redBox.png,al1_con.png,29,18,NaN,NaN,0.15,0.85,0,1,0,0,Volatile,Stable,3.874,0.676,1.496,1.639,expert
91,1671108223095,15/12/2022 12:43:43,1671108218186,0,15/12/2022 12:43:38,109680,37,task-xjip,repeat-7g8d#1->-repeat-38fk#1,25970361,BLIND,7671893,NaN,complete,NaN,NaN,computer,Desktop or Laptop,Windows 10,Edge 108.0.1462.46,1280x720,1280x720,End of Day 1,SLS,90,A,Pass,End of Day 1,Pass,NaN,NaN,NaN,Pass,NaN,Pass,NaN,schedule_A,schedule_A,19,7,3,offer,Zone2,response_button_image,407.900000095367,NaN,NaN,yellowBox.png,1,1,0,0,NaN,NaN,NaN,NaN,NaN,trial_left,yellowBox.png,yellowBox.png,redBox.png,al1_con.png,29,18,NaN,NaN,0.15,0.85,0,1,0,0,Volatile,Stable,3.874,0.676,1.496,1.639,expert
92,1671108225082,15/12/2022 12:43:45,1671108220170,0,15/12/2022 12:43:40,109680,37,task-xjip,repeat-7g8d#1->-repeat-38fk#1,25970361,BLIND,7671893,NaN,complete,NaN,NaN,computer,Desktop or Laptop,Windows 10,Edge 108.0.1462.46,1280x720,1280x720,End of Day 1,SLS,90,A,Pass,End of Day 1,Pass,NaN,NaN,NaN,Pass,NaN,Pass,NaN,schedule_A,schedule_A,19,7,4,feedback_l,Zone7,timelimit_screen,1999.18000000001,NaN,NaN,,NaN,0,1,0,NaN,NaN,1,NaN,NaN,trial_left,yellowBox.png,yellowBox.png,redBox.png,al1_con.png,29,18,NaN,NaN,0.15,0.85,0,1,0,0,Volatile,Stable,3.874,0.676,1.496,1.639,expert
93,1671108225235,15/12/2022 12:43:45,1671108220318,0,15/12/2022 12:43:40,109680,37,task-xjip,repeat-7g8d#1->-repeat-38fk#1,25970361,BLIND,7671893,NaN,complete,NaN,NaN,computer,Desktop or Laptop,Windows 10,Edge 108.0.1462.46,1280x720,1280x720,End of Day 1,SLS,90,A,Pass,End of Day 1,Pass,NaN,NaN,NaN,Pass,NaN,Pass,NaN,schedule_A,schedule_A,19,7,6,end,Zone1,timelimit_screen,149.900999999998,NaN,NaN,,NaN,0,1,0,NaN,NaN,1,NaN,NaN,trial_left,yellowBox.png,yellowBox.png,redBox.png,al1_con.png,29,18,NaN,NaN,0.15,0.85,0,1,0,0,Volatile,Stable,3.874,0.676,1.496,1.639,expert
94,1671108226643,15/12/2022 12:43:46,1671108221738,0,15/12/2022 12:43:41,109680,37,task-xjip,repeat-7g8d#1->-repeat-38fk#1,25970361,BLIND,7671893,NaN,complete,NaN,NaN,computer,Desktop or Laptop,Windows 10,Edge 108.0.1462.46,1280x720,1280x720,End of Day 1,SLS,90,A,Pass,End of Day 1,Pass,NaN,NaN,NaN,Pass,NaN,Pass,NaN,schedule_A,schedule_A,20,12,1,Screen 1,Zone1,continue_button,1404.90000009537,NaN,NaN,,NaN,0,1,0,NaN,NaN,NaN,NaN,NaN,trial_right,yellowBox.png,yellowBox.png,redBox.png,al1_con.png,30,19,NaN,NaN,0.15,0.85,0,0,1,0,Volatile,Stable,1.252,1.193,0.853,2.681,expert
95,1671108227677,15/12/2022 12:43:47,1671108222737,0,15/12/2022 12:43:42,109680,37,task-xjip,repeat-7g8d#1->-repeat-38fk#1,25970361,BLIND,7671893,NaN,complete,NaN,NaN,computer,Desktop or Laptop,Windows 10,Edge 108.0.1462.46,1280x720,1280x720,End of Day 1,SLS,90,A,Pass,End of Day 1,Pass,NaN,NaN,NaN,Pass,NaN,Pass,NaN,schedule_A,schedule_A,20,12,2,individual,Zone4,timelimit_screen,999.857999999993,NaN,NaN,,NaN,0,1,0,NaN,NaN,1,NaN,NaN,trial_right,yellowBox.png,yellowBox.png,redBox.png,al1_con.png,30,19,NaN,NaN,0.15,0.85,0,0,1,0,Volatile,Stable,1.252,1.193,0.853,2.681,expert
96,1671108228696,15/12/2022 12:43:48,1671108223772,0,15/12/2022 12:43:43,109680,37,task-xjip,repeat-7g8d#1->-repeat-38fk#1,25970361,BLIND,7671893,NaN,complete,NaN,NaN,computer,Desktop or Laptop,Windows 10,Edge 108.0.1462.46,1280x720,1280x720,End of Day 1,SLS,90,A,Pass,End of Day 1,Pass,NaN,NaN,NaN,Pass,NaN,Pass,NaN,schedule_A,schedule_A,20,12,3,offer,Zone3,response_button_image,1026.19999980927,NaN,NaN,redBox.png,1,0,1,0,NaN,NaN,NaN,NaN,NaN,trial_right,yellowBox.png,yellowBox.png,redBox.png,al1_con.png,30,19,NaN,NaN,0.15,0.85,0,0,1,0,Volatile,Stable,1.252,1.193,0.853,2.681,expert
97,1671108230683,15/12/2022 12:43:50,1671108225768,0,15/12/2022 12:43:45,109680,37,task-xjip,repeat-7g8d#1->-repeat-38fk#1,25970361,BLIND,7671893,NaN,complete,NaN,NaN,computer,Desktop or Laptop,Windows 10,Edge 108.0.1462.46,1280x720,1280x720,End of Day 1,SLS,90,A,Pass,End of Day 1,Pass,NaN,NaN,NaN,Pass,NaN,Pass,NaN,schedule_A,schedule_A,20,12,5,feedback_r,Zone7,timelimit_screen,1999.91800000001,NaN,NaN,,NaN,0,1,0,NaN,NaN,1,NaN,NaN,trial_right,yellowBox.png,yellowBox.png,redBox.png,al1_con.png,30,19,NaN,NaN,0.15,0.85,0,0,1,0,Volatile,Stable,1.252,1.193,0.853,2.681,expert
98,1671108230841,15/12/2022 12:43:50,1671108225918,0,15/12/2022 12:43:45,109680,37,task-xjip,repeat-7g8d#1->-repeat-38fk#1,25970361,BLIND,7671893,NaN,complete,NaN,NaN,computer,Desktop or Laptop,Windows 10,Edge 108.0.1462.46,1280x720,1280x720,End of Day 1,SLS,90,A,Pass,End of Day 1,Pass,NaN,NaN,NaN,Pass,NaN,Pass,NaN,schedule_A,schedule_A,20,12,6,end,Zone1,timelimit_screen,149.726999999999,NaN,NaN,,NaN,0,1,0,NaN,NaN,1,NaN,NaN,trial_right,yellowBox.png,yellowBox.png,redBox.png,al1_con.png,30,19,NaN,NaN,0.15,0.85,0,0,1,0,Volatile,Stable,1.252,1.193,0.853,2.681,expert
99,1671108233201,15/12/2022 12:43:53,1671108228270,0,15/12/2022 12:43:48,109680,37,task-xjip,repeat-7g8d#1->-repeat-38fk#1,25970361,BLIND,7671893,NaN,complete,NaN,NaN,computer,Desktop or Laptop,Windows 10,Edge 108.0.1462.46,1280x720,1280x720,End of Day 1,SLS,90,A,Pass,End of Day 1,Pass,NaN,NaN,NaN,Pass,NaN,Pass,NaN,schedule_A,schedule_A,21,13,1,Screen 1,Zone1,continue_button,2338.69999980927,NaN,NaN,,NaN,0,1,0,NaN,NaN,NaN,NaN,NaN,trial_right,yellowBox.png,redBox.png,yellowBox.png,al1_con.png,41,20,NaN,NaN,0.15,0.85,0,1,0,1,Volatile,Stable,3.521,1.723,1.37,1.655,expert
100,1671108234179,15/12/2022 12:43:54,1671108229267,0,15/12/2022 12:43:49,109680,37,task-xjip,repeat-7g8d#1->-repeat-38fk#1,25970361,BLIND,7671893,NaN,complete,NaN,NaN,computer,Desktop or Laptop,Windows 10,Edge 108.0.1462.46,1280x720,1280x720,End of Day 1,SLS,90,A,Pass,End of Day 1,Pass,NaN,NaN,NaN,Pass,NaN,Pass,NaN,schedule_A,schedule_A,21,13,2,individual,Zone4,timelimit_screen,999.592000000004,NaN,NaN,,NaN,0,1,0,NaN,NaN,1,NaN,NaN,trial_right,yellowBox.png,redBox.png,yellowBox.png,al1_con.png,41,20,NaN,NaN,0.15,0.85,0,1,0,1,Volatile,Stable,3.521,1.723,1.37,1.655,expert
101,1671108235534,15/12/2022 12:43:55,1671108230621,0,15/12/2022 12:43:50,109680,37,task-xjip,repeat-7g8d#1->-repeat-38fk#1,25970361,BLIND,7671893,NaN,complete,NaN,NaN,computer,Desktop or Laptop,Windows 10,Edge 108.0.1462.46,1280x720,1280x720,End of Day 1,SLS,90,A,Pass,End of Day 1,Pass,NaN,NaN,NaN,Pass,NaN,Pass,NaN,schedule_A,schedule_A,21,13,3,offer,Zone3,response_button_image,1344.59999990463,NaN,NaN,yellowBox.png,1,1,0,0,NaN,NaN,NaN,NaN,NaN,trial_right,yellowBox.png,redBox.png,yellowBox.png,al1_con.png,41,20,NaN,NaN,0.15,0.85,0,1,0,1,Volatile,Stable,3.521,1.723,1.37,1.655,expert
102,1671108237530,15/12/2022 12:43:57,1671108232618,0,15/12/2022 12:43:52,109680,37,task-xjip,repeat-7g8d#1->-repeat-38fk#1,25970361,BLIND,7671893,NaN,complete,NaN,NaN,computer,Desktop or Laptop,Windows 10,Edge 108.0.1462.46,1280x720,1280x720,End of Day 1,SLS,90,A,Pass,End of Day 1,Pass,NaN,NaN,NaN,Pass,NaN,Pass,NaN,schedule_A,schedule_A,21,13,5,feedback_r,Zone7,timelimit_screen,1999.91,NaN,NaN,,NaN,0,1,0,NaN,NaN,1,NaN,NaN,trial_right,yellowBox.png,redBox.png,yellowBox.png,al1_con.png,41,20,NaN,NaN,0.15,0.85,0,1,0,1,Volatile,Stable,3.521,1.723,1.37,1.655,expert
103,1671108237681,15/12/2022 12:43:57,1671108232768,0,15/12/2022 12:43:52,109680,37,task-xjip,repeat-7g8d#1->-repeat-38fk#1,25970361,BLIND,7671893,NaN,complete,NaN,NaN,computer,Desktop or Laptop,Windows 10,Edge 108.0.1462.46,1280x720,1280x720,End of Day 1,SLS,90,A,Pass,End of Day 1,Pass,NaN,NaN,NaN,Pass,NaN,Pass,NaN,schedule_A,schedule_A,21,13,6,end,Zone1,timelimit_screen,150.011999999988,NaN,NaN,,NaN,0,1,0,NaN,NaN,1,NaN,NaN,trial_right,yellowBox.png,redBox.png,yellowBox.png,al1_con.png,41,20,NaN,NaN,0.15,0.85,0,1,0,1,Volatile,Stable,3.521,1.723,1.37,1.655,expert
104,1671108239634,15/12/2022 12:43:59,1671108234703,0,15/12/2022 12:43:54,109680,37,task-xjip,repeat-7g8d#1->-repeat-38fk#1,25970361,BLIND,7671893,NaN,complete,NaN,NaN,computer,Desktop or Laptop,Windows 10,Edge 108.0.1462.46,1280x720,1280x720,End of Day 1,SLS,90,A,Pass,End of Day 1,Pass,NaN,NaN,NaN,Pass,NaN,Pass,NaN,schedule_A,schedule_A,22,14,1,Screen 1,Zone1,continue_button,1922,NaN,NaN,,NaN,0,1,0,NaN,NaN,NaN,NaN,NaN,trial_right,redBox.png,yellowBox.png,redBox.png,al1_con.png,42,21,NaN,NaN,0.85,0.85,1,1,1,0,Stable,Stable,2.336,0.651,1.685,2.882,expert
105,1671108240605,15/12/2022 12:44:00,1671108235700,0,15/12/2022 12:43:55,109680,37,task-xjip,repeat-7g8d#1->-repeat-38fk#1,25970361,BLIND,7671893,NaN,complete,NaN,NaN,computer,Desktop or Laptop,Windows 10,Edge 108.0.1462.46,1280x720,1280x720,End of Day 1,SLS,90,A,Pass,End of Day 1,Pass,NaN,NaN,NaN,Pass,NaN,Pass,NaN,schedule_A,schedule_A,22,14,2,individual,Zone4,timelimit_screen,1000.024,NaN,NaN,,NaN,0,1,0,NaN,NaN,1,NaN,NaN,trial_right,redBox.png,yellowBox.png,redBox.png,al1_con.png,42,21,NaN,NaN,0.85,0.85,1,1,1,0,Stable,Stable,2.336,0.651,1.685,2.882,expert
106,1671108242594,15/12/2022 12:44:02,1671108237682,0,15/12/2022 12:43:57,109680,37,task-xjip,repeat-7g8d#1->-repeat-38fk#1,25970361,BLIND,7671893,NaN,complete,NaN,NaN,computer,Desktop or Laptop,Windows 10,Edge 108.0.1462.46,1280x720,1280x720,End of Day 1,SLS,90,A,Pass,End of Day 1,Pass,NaN,NaN,NaN,Pass,NaN,Pass,NaN,schedule_A,schedule_A,22,14,3,offer,Zone3,response_button_image,1972.19999980927,NaN,NaN,redBox.png,1,1,0,0,NaN,NaN,NaN,NaN,NaN,trial_right,redBox.png,yellowBox.png,redBox.png,al1_con.png,42,21,NaN,NaN,0.85,0.85,1,1,1,0,Stable,Stable,2.336,0.651,1.685,2.882,expert
107,1671108244568,15/12/2022 12:44:04,1671108239666,0,15/12/2022 12:43:59,109680,37,task-xjip,repeat-7g8d#1->-repeat-38fk#1,25970361,BLIND,7671893,NaN,complete,NaN,NaN,computer,Desktop or Laptop,Windows 10,Edge 108.0.1462.46,1280x720,1280x720,End of Day 1,SLS,90,A,Pass,End of Day 1,Pass,NaN,NaN,NaN,Pass,NaN,Pass,NaN,schedule_A,schedule_A,22,14,5,feedback_r,Zone7,timelimit_screen,1999.834,NaN,NaN,,NaN,0,1,0,NaN,NaN,1,NaN,NaN,trial_right,redBox.png,yellowBox.png,redBox.png,al1_con.png,42,21,NaN,NaN,0.85,0.85,1,1,1,0,Stable,Stable,2.336,0.651,1.685,2.882,expert
108,1671108244791,15/12/2022 12:44:04,1671108239815,0,15/12/2022 12:43:59,109680,37,task-xjip,repeat-7g8d#1->-repeat-38fk#1,25970361,BLIND,7671893,NaN,complete,NaN,NaN,computer,Desktop or Laptop,Windows 10,Edge 108.0.1462.46,1280x720,1280x720,End of Day 1,SLS,90,A,Pass,End of Day 1,Pass,NaN,NaN,NaN,Pass,NaN,Pass,NaN,schedule_A,schedule_A,22,14,6,end,Zone1,timelimit_screen,149.44200000001,NaN,NaN,,NaN,0,1,0,NaN,NaN,1,NaN,NaN,trial_right,redBox.png,yellowBox.png,redBox.png,al1_con.png,42,21,NaN,NaN,0.85,0.85,1,1,1,0,Stable,Stable,2.336,0.651,1.685,2.882,expert
109,1671108245969,15/12/2022 12:44:05,1671108241067,0,15/12/2022 12:44:01,109680,37,task-xjip,repeat-7g8d#1->-repeat-38fk#1,25970361,BLIND,7671893,NaN,complete,NaN,NaN,computer,Desktop or Laptop,Windows 10,Edge 108.0.1462.46,1280x720,1280x720,End of Day 1,SLS,90,A,Pass,End of Day 1,Pass,NaN,NaN,NaN,Pass,NaN,Pass,NaN,schedule_A,schedule_A,23,15,1,Screen 1,Zone1,continue_button,1238.19999980927,NaN,NaN,,NaN,0,1,0,NaN,NaN,NaN,NaN,NaN,trial_right,redBox.png,yellowBox.png,redBox.png,al1_con.png,43,22,NaN,NaN,0.85,0.85,1,1,1,0,Stable,Stable,3.622,1.319,1.193,1.067,expert
110,1671108246979,15/12/2022 12:44:06,1671108242067,0,15/12/2022 12:44:02,109680,37,task-xjip,repeat-7g8d#1->-repeat-38fk#1,25970361,BLIND,7671893,NaN,complete,NaN,NaN,computer,Desktop or Laptop,Windows 10,Edge 108.0.1462.46,1280x720,1280x720,End of Day 1,SLS,90,A,Pass,End of Day 1,Pass,NaN,NaN,NaN,Pass,NaN,Pass,NaN,schedule_A,schedule_A,23,15,2,individual,Zone4,timelimit_screen,1000.08900000001,NaN,NaN,,NaN,0,1,0,NaN,NaN,1,NaN,NaN,trial_right,redBox.png,yellowBox.png,redBox.png,al1_con.png,43,22,NaN,NaN,0.85,0.85,1,1,1,0,Stable,Stable,3.622,1.319,1.193,1.067,expert
111,1671108247922,15/12/2022 12:44:07,1671108243011,0,15/12/2022 12:44:03,109680,37,task-xjip,repeat-7g8d#1->-repeat-38fk#1,25970361,BLIND,7671893,NaN,complete,NaN,NaN,computer,Desktop or Laptop,Windows 10,Edge 108.0.1462.46,1280x720,1280x720,End of Day 1,SLS,90,A,Pass,End of Day 1,Pass,NaN,NaN,NaN,Pass,NaN,Pass,NaN,schedule_A,schedule_A,23,15,3,offer,Zone3,response_button_image,932.900000095367,NaN,NaN,redBox.png,1,1,0,0,NaN,NaN,NaN,NaN,NaN,trial_right,redBox.png,yellowBox.png,redBox.png,al1_con.png,43,22,NaN,NaN,0.85,0.85,1,1,1,0,Stable,Stable,3.622,1.319,1.193,1.067,expert
112,1671108249916,15/12/2022 12:44:09,1671108244998,0,15/12/2022 12:44:04,109680,37,task-xjip,repeat-7g8d#1->-repeat-38fk#1,25970361,BLIND,7671893,NaN,complete,NaN,NaN,computer,Desktop or Laptop,Windows 10,Edge 108.0.1462.46,1280x720,1280x720,End of Day 1,SLS,90,A,Pass,End of Day 1,Pass,NaN,NaN,NaN,Pass,NaN,Pass,NaN,schedule_A,schedule_A,23,15,5,feedback_r,Zone7,timelimit_screen,1999.47500000001,NaN,NaN,,NaN,0,1,0,NaN,NaN,1,NaN,NaN,trial_right,redBox.png,yellowBox.png,redBox.png,al1_con.png,43,22,NaN,NaN,0.85,0.85,1,1,1,0,Stable,Stable,3.622,1.319,1.193,1.067,expert
113,1671108250046,15/12/2022 12:44:10,1671108245147,0,15/12/2022 12:44:05,109680,37,task-xjip,repeat-7g8d#1->-repeat-38fk#1,25970361,BLIND,7671893,NaN,complete,NaN,NaN,computer,Desktop or Laptop,Windows 10,Edge 108.0.1462.46,1280x720,1280x720,End of Day 1,SLS,90,A,Pass,End of Day 1,Pass,NaN,NaN,NaN,Pass,NaN,Pass,NaN,schedule_A,schedule_A,23,15,6,end,Zone1,timelimit_screen,149.760000000009,NaN,NaN,,NaN,0,1,0,NaN,NaN,1,NaN,NaN,trial_right,redBox.png,yellowBox.png,redBox.png,al1_con.png,43,22,NaN,NaN,0.85,0.85,1,1,1,0,Stable,Stable,3.622,1.319,1.193,1.067,expert
114,1671108251394,15/12/2022 12:44:11,1671108246478,0,15/12/2022 12:44:06,109680,37,task-xjip,repeat-7g8d#1->-repeat-38fk#1,25970361,BLIND,7671893,NaN,complete,NaN,NaN,computer,Desktop or Laptop,Windows 10,Edge 108.0.1462.46,1280x720,1280x720,End of Day 1,SLS,90,A,Pass,End of Day 1,Pass,NaN,NaN,NaN,Pass,NaN,Pass,NaN,schedule_A,schedule_A,24,8,1,Screen 1,Zone1,continue_button,1319.2000002861,NaN,NaN,,NaN,0,1,0,NaN,NaN,NaN,NaN,NaN,trial_left,redBox.png,redBox.png,yellowBox.png,al1_con.png,44,23,NaN,NaN,0.85,0.85,1,1,1,1,Stable,Stable,1.731,0.853,2,1.202,expert
115,1671108252364,15/12/2022 12:44:12,1671108247465,0,15/12/2022 12:44:07,109680,37,task-xjip,repeat-7g8d#1->-repeat-38fk#1,25970361,BLIND,7671893,NaN,complete,NaN,NaN,computer,Desktop or Laptop,Windows 10,Edge 108.0.1462.46,1280x720,1280x720,End of Day 1,SLS,90,A,Pass,End of Day 1,Pass,NaN,NaN,NaN,Pass,NaN,Pass,NaN,schedule_A,schedule_A,24,8,2,individual,Zone4,timelimit_screen,1000.09599999999,NaN,NaN,,NaN,0,1,0,NaN,NaN,1,NaN,NaN,trial_left,redBox.png,redBox.png,yellowBox.png,al1_con.png,44,23,NaN,NaN,0.85,0.85,1,1,1,1,Stable,Stable,1.731,0.853,2,1.202,expert
116,1671108254166,15/12/2022 12:44:14,1671108249203,0,15/12/2022 12:44:09,109680,37,task-xjip,repeat-7g8d#1->-repeat-38fk#1,25970361,BLIND,7671893,NaN,complete,NaN,NaN,computer,Desktop or Laptop,Windows 10,Edge 108.0.1462.46,1280x720,1280x720,End of Day 1,SLS,90,A,Pass,End of Day 1,Pass,NaN,NaN,NaN,Pass,NaN,Pass,NaN,schedule_A,schedule_A,24,8,3,offer,Zone2,response_button_image,1729.5,NaN,NaN,redBox.png,1,1,0,0,NaN,NaN,NaN,NaN,NaN,trial_left,redBox.png,redBox.png,yellowBox.png,al1_con.png,44,23,NaN,NaN,0.85,0.85,1,1,1,1,Stable,Stable,1.731,0.853,2,1.202,expert
117,1671108256194,15/12/2022 12:44:16,1671108251197,0,15/12/2022 12:44:11,109680,37,task-xjip,repeat-7g8d#1->-repeat-38fk#1,25970361,BLIND,7671893,NaN,complete,NaN,NaN,computer,Desktop or Laptop,Windows 10,Edge 108.0.1462.46,1280x720,1280x720,End of Day 1,SLS,90,A,Pass,End of Day 1,Pass,NaN,NaN,NaN,Pass,NaN,Pass,NaN,schedule_A,schedule_A,24,8,4,feedback_l,Zone7,timelimit_screen,1999.508,NaN,NaN,,NaN,0,1,0,NaN,NaN,1,NaN,NaN,trial_left,redBox.png,redBox.png,yellowBox.png,al1_con.png,44,23,NaN,NaN,0.85,0.85,1,1,1,1,Stable,Stable,1.731,0.853,2,1.202,expert
118,1671108256276,15/12/2022 12:44:16,1671108251346,0,15/12/2022 12:44:11,109680,37,task-xjip,repeat-7g8d#1->-repeat-38fk#1,25970361,BLIND,7671893,NaN,complete,NaN,NaN,computer,Desktop or Laptop,Windows 10,Edge 108.0.1462.46,1280x720,1280x720,End of Day 1,SLS,90,A,Pass,End of Day 1,Pass,NaN,NaN,NaN,Pass,NaN,Pass,NaN,schedule_A,schedule_A,24,8,6,end,Zone1,timelimit_screen,150.052999999985,NaN,NaN,,NaN,0,1,0,NaN,NaN,1,NaN,NaN,trial_left,redBox.png,redBox.png,yellowBox.png,al1_con.png,44,23,NaN,NaN,0.85,0.85,1,1,1,1,Stable,Stable,1.731,0.853,2,1.202,expert
119,1671108257495,15/12/2022 12:44:17,1671108252565,0,15/12/2022 12:44:12,109680,37,task-xjip,repeat-7g8d#1->-repeat-38fk#1,25970361,BLIND,7671893,NaN,complete,NaN,NaN,computer,Desktop or Laptop,Windows 10,Edge 108.0.1462.46,1280x720,1280x720,End of Day 1,SLS,90,A,Pass,End of Day 1,Pass,NaN,NaN,NaN,Pass,NaN,Pass,NaN,schedule_A,schedule_A,25,16,1,Screen 1,Zone1,continue_button,1204.2000002861,NaN,NaN,,NaN,0,1,0,NaN,NaN,NaN,NaN,NaN,trial_right,redBox.png,yellowBox.png,redBox.png,al1_con.png,45,24,NaN,NaN,0.85,0.85,1,1,1,0,Stable,Stable,2.109,1.798,1.508,2.782,expert
120,1671108258479,15/12/2022 12:44:18,1671108253563,0,15/12/2022 12:44:13,109680,37,task-xjip,repeat-7g8d#1->-repeat-38fk#1,25970361,BLIND,7671893,NaN,complete,NaN,NaN,computer,Desktop or Laptop,Windows 10,Edge 108.0.1462.46,1280x720,1280x720,End of Day 1,SLS,90,A,Pass,End of Day 1,Pass,NaN,NaN,NaN,Pass,NaN,Pass,NaN,schedule_A,schedule_A,25,16,2,individual,Zone4,timelimit_screen,999.739999999991,NaN,NaN,,NaN,0,1,0,NaN,NaN,1,NaN,NaN,trial_right,redBox.png,yellowBox.png,redBox.png,al1_con.png,45,24,NaN,NaN,0.85,0.85,1,1,1,0,Stable,Stable,2.109,1.798,1.508,2.782,expert
121,1671108259733,15/12/2022 12:44:19,1671108254834,0,15/12/2022 12:44:14,109680,37,task-xjip,repeat-7g8d#1->-repeat-38fk#1,25970361,BLIND,7671893,NaN,complete,NaN,NaN,computer,Desktop or Laptop,Windows 10,Edge 108.0.1462.46,1280x720,1280x720,End of Day 1,SLS,90,A,Pass,End of Day 1,Pass,NaN,NaN,NaN,Pass,NaN,Pass,NaN,schedule_A,schedule_A,25,16,3,offer,Zone3,response_button_image,1262.09999990463,NaN,NaN,redBox.png,1,1,0,0,NaN,NaN,NaN,NaN,NaN,trial_right,redBox.png,yellowBox.png,redBox.png,al1_con.png,45,24,NaN,NaN,0.85,0.85,1,1,1,0,Stable,Stable,2.109,1.798,1.508,2.782,expert
122,1671108261733,15/12/2022 12:44:21,1671108256828,0,15/12/2022 12:44:16,109680,37,task-xjip,repeat-7g8d#1->-repeat-38fk#1,25970361,BLIND,7671893,NaN,complete,NaN,NaN,computer,Desktop or Laptop,Windows 10,Edge 108.0.1462.46,1280x720,1280x720,End of Day 1,SLS,90,A,Pass,End of Day 1,Pass,NaN,NaN,NaN,Pass,NaN,Pass,NaN,schedule_A,schedule_A,25,16,5,feedback_r,Zone7,timelimit_screen,1999.71100000001,NaN,NaN,,NaN,0,1,0,NaN,NaN,1,NaN,NaN,trial_right,redBox.png,yellowBox.png,redBox.png,al1_con.png,45,24,NaN,NaN,0.85,0.85,1,1,1,0,Stable,Stable,2.109,1.798,1.508,2.782,expert
123,1671108261922,15/12/2022 12:44:21,1671108256978,0,15/12/2022 12:44:16,109680,37,task-xjip,repeat-7g8d#1->-repeat-38fk#1,25970361,BLIND,7671893,NaN,complete,NaN,NaN,computer,Desktop or Laptop,Windows 10,Edge 108.0.1462.46,1280x720,1280x720,End of Day 1,SLS,90,A,Pass,End of Day 1,Pass,NaN,NaN,NaN,Pass,NaN,Pass,NaN,schedule_A,schedule_A,25,16,6,end,Zone1,timelimit_screen,149.972999999998,NaN,NaN,,NaN,0,1,0,NaN,NaN,1,NaN,NaN,trial_right,redBox.png,yellowBox.png,redBox.png,al1_con.png,45,24,NaN,NaN,0.85,0.85,1,1,1,0,Stable,Stable,2.109,1.798,1.508,2.782,expert
124,1671108264565,15/12/2022 12:44:24,1671108259660,0,15/12/2022 12:44:19,109680,37,task-xjip,repeat-7g8d#1->-repeat-38fk#1,25970361,BLIND,7671893,NaN,complete,NaN,NaN,computer,Desktop or Laptop,Windows 10,Edge 108.0.1462.46,1280x720,1280x720,End of Day 1,SLS,90,A,Pass,End of Day 1,Pass,NaN,NaN,NaN,Pass,NaN,Pass,NaN,schedule_A,schedule_A,26,9,1,Screen 1,Zone1,continue_button,2667.69999980927,NaN,NaN,,NaN,0,1,0,NaN,NaN,NaN,NaN,NaN,trial_left,redBox.png,redBox.png,yellowBox.png,al1_con.png,46,25,NaN,NaN,0.85,0.85,1,1,1,1,Stable,Stable,2.916,1.294,1.962,2.361,expert
125,1671108265558,15/12/2022 12:44:25,1671108260645,0,15/12/2022 12:44:20,109680,37,task-xjip,repeat-7g8d#1->-repeat-38fk#1,25970361,BLIND,7671893,NaN,complete,NaN,NaN,computer,Desktop or Laptop,Windows 10,Edge 108.0.1462.46,1280x720,1280x720,End of Day 1,SLS,90,A,Pass,End of Day 1,Pass,NaN,NaN,NaN,Pass,NaN,Pass,NaN,schedule_A,schedule_A,26,9,2,individual,Zone4,timelimit_screen,999.684000000008,NaN,NaN,,NaN,0,1,0,NaN,NaN,1,NaN,NaN,trial_left,redBox.png,redBox.png,yellowBox.png,al1_con.png,46,25,NaN,NaN,0.85,0.85,1,1,1,1,Stable,Stable,2.916,1.294,1.962,2.361,expert
126,1671108266943,15/12/2022 12:44:26,1671108262041,0,15/12/2022 12:44:22,109680,37,task-xjip,repeat-7g8d#1->-repeat-38fk#1,25970361,BLIND,7671893,NaN,complete,NaN,NaN,computer,Desktop or Laptop,Windows 10,Edge 108.0.1462.46,1280x720,1280x720,End of Day 1,SLS,90,A,Pass,End of Day 1,Pass,NaN,NaN,NaN,Pass,NaN,Pass,NaN,schedule_A,schedule_A,26,9,3,offer,Zone2,response_button_image,1387.7999997139,NaN,NaN,redBox.png,1,1,0,0,NaN,NaN,NaN,NaN,NaN,trial_left,redBox.png,redBox.png,yellowBox.png,al1_con.png,46,25,NaN,NaN,0.85,0.85,1,1,1,1,Stable,Stable,2.916,1.294,1.962,2.361,expert
127,1671108268930,15/12/2022 12:44:28,1671108264026,0,15/12/2022 12:44:24,109680,37,task-xjip,repeat-7g8d#1->-repeat-38fk#1,25970361,BLIND,7671893,NaN,complete,NaN,NaN,computer,Desktop or Laptop,Windows 10,Edge 108.0.1462.46,1280x720,1280x720,End of Day 1,SLS,90,A,Pass,End of Day 1,Pass,NaN,NaN,NaN,Pass,NaN,Pass,NaN,schedule_A,schedule_A,26,9,4,feedback_l,Zone7,timelimit_screen,1999.07200000001,NaN,NaN,,NaN,0,1,0,NaN,NaN,1,NaN,NaN,trial_left,redBox.png,redBox.png,yellowBox.png,al1_con.png,46,25,NaN,NaN,0.85,0.85,1,1,1,1,Stable,Stable,2.916,1.294,1.962,2.361,expert
128,1671108269078,15/12/2022 12:44:29,1671108264177,0,15/12/2022 12:44:24,109680,37,task-xjip,repeat-7g8d#1->-repeat-38fk#1,25970361,BLIND,7671893,NaN,complete,NaN,NaN,computer,Desktop or Laptop,Windows 10,Edge 108.0.1462.46,1280x720,1280x720,End of Day 1,SLS,90,A,Pass,End of Day 1,Pass,NaN,NaN,NaN,Pass,NaN,Pass,NaN,schedule_A,schedule_A,26,9,6,end,Zone1,timelimit_screen,150.067999999999,NaN,NaN,,NaN,0,1,0,NaN,NaN,1,NaN,NaN,trial_left,redBox.png,redBox.png,yellowBox.png,al1_con.png,46,25,NaN,NaN,0.85,0.85,1,1,1,1,Stable,Stable,2.916,1.294,1.962,2.361,expert
129,1671108270327,15/12/2022 12:44:30,1671108265406,0,15/12/2022 12:44:25,109680,37,task-xjip,repeat-7g8d#1->-repeat-38fk#1,25970361,BLIND,7671893,NaN,complete,NaN,NaN,computer,Desktop or Laptop,Windows 10,Edge 108.0.1462.46,1280x720,1280x720,End of Day 1,SLS,90,A,Pass,End of Day 1,Pass,NaN,NaN,NaN,Pass,NaN,Pass,NaN,schedule_A,schedule_A,27,17,1,Screen 1,Zone1,continue_button,1215.2000002861,NaN,NaN,,NaN,0,1,0,NaN,NaN,NaN,NaN,NaN,trial_right,redBox.png,yellowBox.png,redBox.png,al1_con.png,47,26,NaN,NaN,0.85,0.85,1,1,1,0,Stable,Stable,2.487,1.697,1.13,1.286,expert
130,1671108271328,15/12/2022 12:44:31,1671108266394,0,15/12/2022 12:44:26,109680,37,task-xjip,repeat-7g8d#1->-repeat-38fk#1,25970361,BLIND,7671893,NaN,complete,NaN,NaN,computer,Desktop or Laptop,Windows 10,Edge 108.0.1462.46,1280x720,1280x720,End of Day 1,SLS,90,A,Pass,End of Day 1,Pass,NaN,NaN,NaN,Pass,NaN,Pass,NaN,schedule_A,schedule_A,27,17,2,individual,Zone4,timelimit_screen,999.690999999992,NaN,NaN,,NaN,0,1,0,NaN,NaN,1,NaN,NaN,trial_right,redBox.png,yellowBox.png,redBox.png,al1_con.png,47,26,NaN,NaN,0.85,0.85,1,1,1,0,Stable,Stable,2.487,1.697,1.13,1.286,expert
131,1671108272294,15/12/2022 12:44:32,1671108267387,0,15/12/2022 12:44:27,109680,37,task-xjip,repeat-7g8d#1->-repeat-38fk#1,25970361,BLIND,7671893,NaN,complete,NaN,NaN,computer,Desktop or Laptop,Windows 10,Edge 108.0.1462.46,1280x720,1280x720,End of Day 1,SLS,90,A,Pass,End of Day 1,Pass,NaN,NaN,NaN,Pass,NaN,Pass,NaN,schedule_A,schedule_A,27,17,3,offer,Zone3,response_button_image,984.799999713898,NaN,NaN,redBox.png,1,1,0,0,NaN,NaN,NaN,NaN,NaN,trial_right,redBox.png,yellowBox.png,redBox.png,al1_con.png,47,26,NaN,NaN,0.85,0.85,1,1,1,0,Stable,Stable,2.487,1.697,1.13,1.286,expert
132,1671108274280,15/12/2022 12:44:34,1671108269376,0,15/12/2022 12:44:29,109680,37,task-xjip,repeat-7g8d#1->-repeat-38fk#1,25970361,BLIND,7671893,NaN,complete,NaN,NaN,computer,Desktop or Laptop,Windows 10,Edge 108.0.1462.46,1280x720,1280x720,End of Day 1,SLS,90,A,Pass,End of Day 1,Pass,NaN,NaN,NaN,Pass,NaN,Pass,NaN,schedule_A,schedule_A,27,17,5,feedback_r,Zone7,timelimit_screen,1999.424,NaN,NaN,,NaN,0,1,0,NaN,NaN,1,NaN,NaN,trial_right,redBox.png,yellowBox.png,redBox.png,al1_con.png,47,26,NaN,NaN,0.85,0.85,1,1,1,0,Stable,Stable,2.487,1.697,1.13,1.286,expert
133,1671108274429,15/12/2022 12:44:34,1671108269526,0,15/12/2022 12:44:29,109680,37,task-xjip,repeat-7g8d#1->-repeat-38fk#1,25970361,BLIND,7671893,NaN,complete,NaN,NaN,computer,Desktop or Laptop,Windows 10,Edge 108.0.1462.46,1280x720,1280x720,End of Day 1,SLS,90,A,Pass,End of Day 1,Pass,NaN,NaN,NaN,Pass,NaN,Pass,NaN,schedule_A,schedule_A,27,17,6,end,Zone1,timelimit_screen,149.82699999999,NaN,NaN,,NaN,0,1,0,NaN,NaN,1,NaN,NaN,trial_right,redBox.png,yellowBox.png,redBox.png,al1_con.png,47,26,NaN,NaN,0.85,0.85,1,1,1,0,Stable,Stable,2.487,1.697,1.13,1.286,expert
134,1671108275612,15/12/2022 12:44:35,1671108270694,0,15/12/2022 12:44:30,109680,37,task-xjip,repeat-7g8d#1->-repeat-38fk#1,25970361,BLIND,7671893,NaN,complete,NaN,NaN,computer,Desktop or Laptop,Windows 10,Edge 108.0.1462.46,1280x720,1280x720,End of Day 1,SLS,90,A,Pass,End of Day 1,Pass,NaN,NaN,NaN,Pass,NaN,Pass,NaN,schedule_A,schedule_A,28,10,1,Screen 1,Zone1,continue_button,1153.09999990463,NaN,NaN,,NaN,0,1,0,NaN,NaN,NaN,NaN,NaN,trial_left,redBox.png,redBox.png,yellowBox.png,al1_con.png,48,27,NaN,NaN,0.85,0.85,1,1,1,1,Stable,Stable,3.824,1.634,0.992,2.244,expert
135,1671108276592,15/12/2022 12:44:36,1671108271692,0,15/12/2022 12:44:31,109680,37,task-xjip,repeat-7g8d#1->-repeat-38fk#1,25970361,BLIND,7671893,NaN,complete,NaN,NaN,computer,Desktop or Laptop,Windows 10,Edge 108.0.1462.46,1280x720,1280x720,End of Day 1,SLS,90,A,Pass,End of Day 1,Pass,NaN,NaN,NaN,Pass,NaN,Pass,NaN,schedule_A,schedule_A,28,10,2,individual,Zone4,timelimit_screen,1000.05800000002,NaN,NaN,,NaN,0,1,0,NaN,NaN,1,NaN,NaN,trial_left,redBox.png,redBox.png,yellowBox.png,al1_con.png,48,27,NaN,NaN,0.85,0.85,1,1,1,1,Stable,Stable,3.824,1.634,0.992,2.244,expert
136,1671108277478,15/12/2022 12:44:37,1671108272562,0,15/12/2022 12:44:32,109680,37,task-xjip,repeat-7g8d#1->-repeat-38fk#1,25970361,BLIND,7671893,NaN,complete,NaN,NaN,computer,Desktop or Laptop,Windows 10,Edge 108.0.1462.46,1280x720,1280x720,End of Day 1,SLS,90,A,Pass,End of Day 1,Pass,NaN,NaN,NaN,Pass,NaN,Pass,NaN,schedule_A,schedule_A,28,10,3,offer,Zone2,response_button_image,861,NaN,NaN,redBox.png,1,1,0,0,NaN,NaN,NaN,NaN,NaN,trial_left,redBox.png,redBox.png,yellowBox.png,al1_con.png,48,27,NaN,NaN,0.85,0.85,1,1,1,1,Stable,Stable,3.824,1.634,0.992,2.244,expert
137,1671108279485,15/12/2022 12:44:39,1671108274558,0,15/12/2022 12:44:34,109680,37,task-xjip,repeat-7g8d#1->-repeat-38fk#1,25970361,BLIND,7671893,NaN,complete,NaN,NaN,computer,Desktop or Laptop,Windows 10,Edge 108.0.1462.46,1280x720,1280x720,End of Day 1,SLS,90,A,Pass,End of Day 1,Pass,NaN,NaN,NaN,Pass,NaN,Pass,NaN,schedule_A,schedule_A,28,10,4,feedback_l,Zone7,timelimit_screen,1999.26800000001,NaN,NaN,,NaN,0,1,0,NaN,NaN,1,NaN,NaN,trial_left,redBox.png,redBox.png,yellowBox.png,al1_con.png,48,27,NaN,NaN,0.85,0.85,1,1,1,1,Stable,Stable,3.824,1.634,0.992,2.244,expert
138,1671108279621,15/12/2022 12:44:39,1671108274708,0,15/12/2022 12:44:34,109680,37,task-xjip,repeat-7g8d#1->-repeat-38fk#1,25970361,BLIND,7671893,NaN,complete,NaN,NaN,computer,Desktop or Laptop,Windows 10,Edge 108.0.1462.46,1280x720,1280x720,End of Day 1,SLS,90,A,Pass,End of Day 1,Pass,NaN,NaN,NaN,Pass,NaN,Pass,NaN,schedule_A,schedule_A,28,10,6,end,Zone1,timelimit_screen,149.889999999985,NaN,NaN,,NaN,0,1,0,NaN,NaN,1,NaN,NaN,trial_left,redBox.png,redBox.png,yellowBox.png,al1_con.png,48,27,NaN,NaN,0.85,0.85,1,1,1,1,Stable,Stable,3.824,1.634,0.992,2.244,expert
139,1671108281269,15/12/2022 12:44:41,1671108276356,0,15/12/2022 12:44:36,109680,37,task-xjip,repeat-7g8d#1->-repeat-38fk#1,25970361,BLIND,7671893,NaN,complete,NaN,NaN,computer,Desktop or Laptop,Windows 10,Edge 108.0.1462.46,1280x720,1280x720,End of Day 1,SLS,90,A,Pass,End of Day 1,Pass,NaN,NaN,NaN,Pass,NaN,Pass,NaN,schedule_A,schedule_A,29,11,1,Screen 1,Zone1,continue_button,1634.59999990463,NaN,NaN,,NaN,0,1,0,NaN,NaN,NaN,NaN,NaN,trial_left,redBox.png,redBox.png,yellowBox.png,al1_con.png,49,28,NaN,NaN,0.85,0.85,1,1,1,1,Stable,Stable,2.84,1.937,1.723,2.815,expert
140,1671108282243,15/12/2022 12:44:42,1671108277341,0,15/12/2022 12:44:37,109680,37,task-xjip,repeat-7g8d#1->-repeat-38fk#1,25970361,BLIND,7671893,NaN,complete,NaN,NaN,computer,Desktop or Laptop,Windows 10,Edge 108.0.1462.46,1280x720,1280x720,End of Day 1,SLS,90,A,Pass,End of Day 1,Pass,NaN,NaN,NaN,Pass,NaN,Pass,NaN,schedule_A,schedule_A,29,11,2,individual,Zone4,timelimit_screen,999.945000000007,NaN,NaN,,NaN,0,1,0,NaN,NaN,1,NaN,NaN,trial_left,redBox.png,redBox.png,yellowBox.png,al1_con.png,49,28,NaN,NaN,0.85,0.85,1,1,1,1,Stable,Stable,2.84,1.937,1.723,2.815,expert
141,1671108283494,15/12/2022 12:44:43,1671108278571,0,15/12/2022 12:44:38,109680,37,task-xjip,repeat-7g8d#1->-repeat-38fk#1,25970361,BLIND,7671893,NaN,complete,NaN,NaN,computer,Desktop or Laptop,Windows 10,Edge 108.0.1462.46,1280x720,1280x720,End of Day 1,SLS,90,A,Pass,End of Day 1,Pass,NaN,NaN,NaN,Pass,NaN,Pass,NaN,schedule_A,schedule_A,29,11,3,offer,Zone2,response_button_image,1219.80000019073,NaN,NaN,redBox.png,1,1,0,0,NaN,NaN,NaN,NaN,NaN,trial_left,redBox.png,redBox.png,yellowBox.png,al1_con.png,49,28,NaN,NaN,0.85,0.85,1,1,1,1,Stable,Stable,2.84,1.937,1.723,2.815,expert
142,1671108285490,15/12/2022 12:44:45,1671108280556,0,15/12/2022 12:44:40,109680,37,task-xjip,repeat-7g8d#1->-repeat-38fk#1,25970361,BLIND,7671893,NaN,complete,NaN,NaN,computer,Desktop or Laptop,Windows 10,Edge 108.0.1462.46,1280x720,1280x720,End of Day 1,SLS,90,A,Pass,End of Day 1,Pass,NaN,NaN,NaN,Pass,NaN,Pass,NaN,schedule_A,schedule_A,29,11,4,feedback_l,Zone7,timelimit_screen,1999.76999999999,NaN,NaN,,NaN,0,1,0,NaN,NaN,1,NaN,NaN,trial_left,redBox.png,redBox.png,yellowBox.png,al1_con.png,49,28,NaN,NaN,0.85,0.85,1,1,1,1,Stable,Stable,2.84,1.937,1.723,2.815,expert
143,1671108285622,15/12/2022 12:44:45,1671108280706,0,15/12/2022 12:44:40,109680,37,task-xjip,repeat-7g8d#1->-repeat-38fk#1,25970361,BLIND,7671893,NaN,complete,NaN,NaN,computer,Desktop or Laptop,Windows 10,Edge 108.0.1462.46,1280x720,1280x720,End of Day 1,SLS,90,A,Pass,End of Day 1,Pass,NaN,NaN,NaN,Pass,NaN,Pass,NaN,schedule_A,schedule_A,29,11,6,end,Zone1,timelimit_screen,149.614000000001,NaN,NaN,,NaN,0,1,0,NaN,NaN,1,NaN,NaN,trial_left,redBox.png,redBox.png,yellowBox.png,al1_con.png,49,28,NaN,NaN,0.85,0.85,1,1,1,1,Stable,Stable,2.84,1.937,1.723,2.815,expert
144,1671108286911,15/12/2022 12:44:46,1671108281943,0,15/12/2022 12:44:41,109680,37,task-xjip,repeat-7g8d#1->-repeat-38fk#1,25970361,BLIND,7671893,NaN,complete,NaN,NaN,computer,Desktop or Laptop,Windows 10,Edge 108.0.1462.46,1280x720,1280x720,End of Day 1,SLS,90,A,Pass,End of Day 1,Pass,NaN,NaN,NaN,Pass,NaN,Pass,NaN,schedule_A,schedule_A,30,18,1,Screen 1,Zone1,continue_button,1222.7000002861,NaN,NaN,,NaN,0,1,0,NaN,NaN,NaN,NaN,NaN,trial_right,redBox.png,yellowBox.png,redBox.png,al1_con.png,50,29,NaN,NaN,0.85,0.85,1,1,1,0,Stable,Stable,2.941,1.71,0.664,1.336,expert
145,1671108287867,15/12/2022 12:44:47,1671108282941,0,15/12/2022 12:44:42,109680,37,task-xjip,repeat-7g8d#1->-repeat-38fk#1,25970361,BLIND,7671893,NaN,complete,NaN,NaN,computer,Desktop or Laptop,Windows 10,Edge 108.0.1462.46,1280x720,1280x720,End of Day 1,SLS,90,A,Pass,End of Day 1,Pass,NaN,NaN,NaN,Pass,NaN,Pass,NaN,schedule_A,schedule_A,30,18,2,individual,Zone4,timelimit_screen,999.856,NaN,NaN,,NaN,0,1,0,NaN,NaN,1,NaN,NaN,trial_right,redBox.png,yellowBox.png,redBox.png,al1_con.png,50,29,NaN,NaN,0.85,0.85,1,1,1,0,Stable,Stable,2.941,1.71,0.664,1.336,expert
146,1671108288881,15/12/2022 12:44:48,1671108283968,0,15/12/2022 12:44:43,109680,37,task-xjip,repeat-7g8d#1->-repeat-38fk#1,25970361,BLIND,7671893,NaN,complete,NaN,NaN,computer,Desktop or Laptop,Windows 10,Edge 108.0.1462.46,1280x720,1280x720,End of Day 1,SLS,90,A,Pass,End of Day 1,Pass,NaN,NaN,NaN,Pass,NaN,Pass,NaN,schedule_A,schedule_A,30,18,3,offer,Zone3,response_button_image,1018.7000002861,NaN,NaN,redBox.png,1,1,0,0,NaN,NaN,NaN,NaN,NaN,trial_right,redBox.png,yellowBox.png,redBox.png,al1_con.png,50,29,NaN,NaN,0.85,0.85,1,1,1,0,Stable,Stable,2.941,1.71,0.664,1.336,expert
147,1671108290862,15/12/2022 12:44:50,1671108285956,0,15/12/2022 12:44:45,109680,37,task-xjip,repeat-7g8d#1->-repeat-38fk#1,25970361,BLIND,7671893,NaN,complete,NaN,NaN,computer,Desktop or Laptop,Windows 10,Edge 108.0.1462.46,1280x720,1280x720,End of Day 1,SLS,90,A,Pass,End of Day 1,Pass,NaN,NaN,NaN,Pass,NaN,Pass,NaN,schedule_A,schedule_A,30,18,5,feedback_r,Zone7,timelimit_screen,1999.43100000001,NaN,NaN,,NaN,0,1,0,NaN,NaN,1,NaN,NaN,trial_right,redBox.png,yellowBox.png,redBox.png,al1_con.png,50,29,NaN,NaN,0.85,0.85,1,1,1,0,Stable,Stable,2.941,1.71,0.664,1.336,expert
148,1671108291021,15/12/2022 12:44:51,1671108286106,0,15/12/2022 12:44:46,109680,37,task-xjip,repeat-7g8d#1->-repeat-38fk#1,25970361,BLIND,7671893,NaN,complete,NaN,NaN,computer,Desktop or Laptop,Windows 10,Edge 108.0.1462.46,1280x720,1280x720,End of Day 1,SLS,90,A,Pass,End of Day 1,Pass,NaN,NaN,NaN,Pass,NaN,Pass,NaN,schedule_A,schedule_A,30,18,6,end,Zone1,timelimit_screen,150.462,NaN,NaN,,NaN,0,1,0,NaN,NaN,1,NaN,NaN,trial_right,redBox.png,yellowBox.png,redBox.png,al1_con.png,50,29,NaN,NaN,0.85,0.85,1,1,1,0,Stable,Stable,2.941,1.71,0.664,1.336,expert
149,1671108292232,15/12/2022 12:44:52,1671108287241,0,15/12/2022 12:44:47,109680,37,task-xjip,repeat-7g8d#1->-repeat-38fk#1,25970361,BLIND,7671893,NaN,complete,NaN,NaN,computer,Desktop or Laptop,Windows 10,Edge 108.0.1462.46,1280x720,1280x720,End of Day 1,SLS,90,A,Pass,End of Day 1,Pass,NaN,NaN,NaN,Pass,NaN,Pass,NaN,schedule_A,schedule_A,31,12,1,Screen 1,Zone1,continue_button,1121.39999961853,NaN,NaN,,NaN,0,1,0,NaN,NaN,NaN,NaN,NaN,trial_left,redBox.png,redBox.png,yellowBox.png,al1_con.png,61,30,NaN,NaN,0.85,0.85,1,1,1,1,Stable,Stable,2.79,1.735,0.601,2.345,expert
150,1671108293145,15/12/2022 12:44:53,1671108288238,0,15/12/2022 12:44:48,109680,37,task-xjip,repeat-7g8d#1->-repeat-38fk#1,25970361,BLIND,7671893,NaN,complete,NaN,NaN,computer,Desktop or Laptop,Windows 10,Edge 108.0.1462.46,1280x720,1280x720,End of Day 1,SLS,90,A,Pass,End of Day 1,Pass,NaN,NaN,NaN,Pass,NaN,Pass,NaN,schedule_A,schedule_A,31,12,2,individual,Zone4,timelimit_screen,999.584000000003,NaN,NaN,,NaN,0,1,0,NaN,NaN,1,NaN,NaN,trial_left,redBox.png,redBox.png,yellowBox.png,al1_con.png,61,30,NaN,NaN,0.85,0.85,1,1,1,1,Stable,Stable,2.79,1.735,0.601,2.345,expert
151,1671108293780,15/12/2022 12:44:53,1671108288863,0,15/12/2022 12:44:48,109680,37,task-xjip,repeat-7g8d#1->-repeat-38fk#1,25970361,BLIND,7671893,NaN,complete,NaN,NaN,computer,Desktop or Laptop,Windows 10,Edge 108.0.1462.46,1280x720,1280x720,End of Day 1,SLS,90,A,Pass,End of Day 1,Pass,NaN,NaN,NaN,Pass,NaN,Pass,NaN,schedule_A,schedule_A,31,12,3,offer,Zone2,response_button_image,615.900000095367,NaN,NaN,redBox.png,1,1,0,0,NaN,NaN,NaN,NaN,NaN,trial_left,redBox.png,redBox.png,yellowBox.png,al1_con.png,61,30,NaN,NaN,0.85,0.85,1,1,1,1,Stable,Stable,2.79,1.735,0.601,2.345,expert
152,1671108295773,15/12/2022 12:44:55,1671108290854,0,15/12/2022 12:44:50,109680,37,task-xjip,repeat-7g8d#1->-repeat-38fk#1,25970361,BLIND,7671893,NaN,complete,NaN,NaN,computer,Desktop or Laptop,Windows 10,Edge 108.0.1462.46,1280x720,1280x720,End of Day 1,SLS,90,A,Pass,End of Day 1,Pass,NaN,NaN,NaN,Pass,NaN,Pass,NaN,schedule_A,schedule_A,31,12,4,feedback_l,Zone7,timelimit_screen,1999.34899999999,NaN,NaN,,NaN,0,1,0,NaN,NaN,1,NaN,NaN,trial_left,redBox.png,redBox.png,yellowBox.png,al1_con.png,61,30,NaN,NaN,0.85,0.85,1,1,1,1,Stable,Stable,2.79,1.735,0.601,2.345,expert
153,1671108295909,15/12/2022 12:44:55,1671108291004,0,15/12/2022 12:44:51,109680,37,task-xjip,repeat-7g8d#1->-repeat-38fk#1,25970361,BLIND,7671893,NaN,complete,NaN,NaN,computer,Desktop or Laptop,Windows 10,Edge 108.0.1462.46,1280x720,1280x720,End of Day 1,SLS,90,A,Pass,End of Day 1,Pass,NaN,NaN,NaN,Pass,NaN,Pass,NaN,schedule_A,schedule_A,31,12,6,end,Zone1,timelimit_screen,149.834000000003,NaN,NaN,,NaN,0,1,0,NaN,NaN,1,NaN,NaN,trial_left,redBox.png,redBox.png,yellowBox.png,al1_con.png,61,30,NaN,NaN,0.85,0.85,1,1,1,1,Stable,Stable,2.79,1.735,0.601,2.345,expert
154,1671108297061,15/12/2022 12:44:57,1671108292140,0,15/12/2022 12:44:52,109680,37,task-xjip,repeat-7g8d#1->-repeat-38fk#1,25970361,BLIND,7671893,NaN,complete,NaN,NaN,computer,Desktop or Laptop,Windows 10,Edge 108.0.1462.46,1280x720,1280x720,End of Day 1,SLS,90,A,Pass,End of Day 1,Pass,NaN,NaN,NaN,Pass,NaN,Pass,NaN,schedule_A,schedule_A,32,19,1,Screen 1,Zone1,continue_button,1122,NaN,NaN,,NaN,0,1,0,NaN,NaN,NaN,NaN,NaN,trial_right,redBox.png,redBox.png,yellowBox.png,al1_con.png,62,31,NaN,NaN,0.85,0.15,1,0,0,1,Stable,Volatile,2.538,1.672,1.143,1.555,expert
155,1671108298073,15/12/2022 12:44:58,1671108293137,0,15/12/2022 12:44:53,109680,37,task-xjip,repeat-7g8d#1->-repeat-38fk#1,25970361,BLIND,7671893,NaN,complete,NaN,NaN,computer,Desktop or Laptop,Windows 10,Edge 108.0.1462.46,1280x720,1280x720,End of Day 1,SLS,90,A,Pass,End of Day 1,Pass,NaN,NaN,NaN,Pass,NaN,Pass,NaN,schedule_A,schedule_A,32,19,2,individual,Zone4,timelimit_screen,999.976999999984,NaN,NaN,,NaN,0,1,0,NaN,NaN,1,NaN,NaN,trial_right,redBox.png,redBox.png,yellowBox.png,al1_con.png,62,31,NaN,NaN,0.85,0.15,1,0,0,1,Stable,Volatile,2.538,1.672,1.143,1.555,expert
156,1671108299067,15/12/2022 12:44:59,1671108294150,0,15/12/2022 12:44:54,109680,37,task-xjip,repeat-7g8d#1->-repeat-38fk#1,25970361,BLIND,7671893,NaN,complete,NaN,NaN,computer,Desktop or Laptop,Windows 10,Edge 108.0.1462.46,1280x720,1280x720,End of Day 1,SLS,90,A,Pass,End of Day 1,Pass,NaN,NaN,NaN,Pass,NaN,Pass,NaN,schedule_A,schedule_A,32,19,3,offer,Zone3,response_button_image,1004.90000009537,NaN,NaN,yellowBox.png,1,0,1,0,NaN,NaN,NaN,NaN,NaN,trial_right,redBox.png,redBox.png,yellowBox.png,al1_con.png,62,31,NaN,NaN,0.85,0.15,1,0,0,1,Stable,Volatile,2.538,1.672,1.143,1.555,expert
157,1671108301041,15/12/2022 12:45:01,1671108296137,0,15/12/2022 12:44:56,109680,37,task-xjip,repeat-7g8d#1->-repeat-38fk#1,25970361,BLIND,7671893,NaN,complete,NaN,NaN,computer,Desktop or Laptop,Windows 10,Edge 108.0.1462.46,1280x720,1280x720,End of Day 1,SLS,90,A,Pass,End of Day 1,Pass,NaN,NaN,NaN,Pass,NaN,Pass,NaN,schedule_A,schedule_A,32,19,5,feedback_r,Zone7,timelimit_screen,1999.50399999999,NaN,NaN,,NaN,0,1,0,NaN,NaN,1,NaN,NaN,trial_right,redBox.png,redBox.png,yellowBox.png,al1_con.png,62,31,NaN,NaN,0.85,0.15,1,0,0,1,Stable,Volatile,2.538,1.672,1.143,1.555,expert
158,1671108301207,15/12/2022 12:45:01,1671108296287,0,15/12/2022 12:44:56,109680,37,task-xjip,repeat-7g8d#1->-repeat-38fk#1,25970361,BLIND,7671893,NaN,complete,NaN,NaN,computer,Desktop or Laptop,Windows 10,Edge 108.0.1462.46,1280x720,1280x720,End of Day 1,SLS,90,A,Pass,End of Day 1,Pass,NaN,NaN,NaN,Pass,NaN,Pass,NaN,schedule_A,schedule_A,32,19,6,end,Zone1,timelimit_screen,150.165000000008,NaN,NaN,,NaN,0,1,0,NaN,NaN,1,NaN,NaN,trial_right,redBox.png,redBox.png,yellowBox.png,al1_con.png,62,31,NaN,NaN,0.85,0.15,1,0,0,1,Stable,Volatile,2.538,1.672,1.143,1.555,expert
159,1671108302576,15/12/2022 12:45:02,1671108297650,0,15/12/2022 12:44:57,109680,37,task-xjip,repeat-7g8d#1->-repeat-38fk#1,25970361,BLIND,7671893,NaN,complete,NaN,NaN,computer,Desktop or Laptop,Windows 10,Edge 108.0.1462.46,1280x720,1280x720,End of Day 1,SLS,90,A,Pass,End of Day 1,Pass,NaN,NaN,NaN,Pass,NaN,Pass,NaN,schedule_A,schedule_A,33,13,1,Screen 1,Zone1,continue_button,1348,NaN,NaN,,NaN,0,1,0,NaN,NaN,NaN,NaN,NaN,trial_left,redBox.png,yellowBox.png,redBox.png,al1_con.png,63,32,NaN,NaN,0.85,0.15,1,0,0,0,Stable,Volatile,2.739,1.13,0.815,1.387,expert
160,1671108303543,15/12/2022 12:45:03,1671108298636,0,15/12/2022 12:44:58,109680,37,task-xjip,repeat-7g8d#1->-repeat-38fk#1,25970361,BLIND,7671893,NaN,complete,NaN,NaN,computer,Desktop or Laptop,Windows 10,Edge 108.0.1462.46,1280x720,1280x720,End of Day 1,SLS,90,A,Pass,End of Day 1,Pass,NaN,NaN,NaN,Pass,NaN,Pass,NaN,schedule_A,schedule_A,33,13,2,individual,Zone4,timelimit_screen,999.649000000005,NaN,NaN,,NaN,0,1,0,NaN,NaN,1,NaN,NaN,trial_left,redBox.png,yellowBox.png,redBox.png,al1_con.png,63,32,NaN,NaN,0.85,0.15,1,0,0,0,Stable,Volatile,2.739,1.13,0.815,1.387,expert
161,1671108304524,15/12/2022 12:45:04,1671108299622,0,15/12/2022 12:44:59,109680,37,task-xjip,repeat-7g8d#1->-repeat-38fk#1,25970361,BLIND,7671893,NaN,complete,NaN,NaN,computer,Desktop or Laptop,Windows 10,Edge 108.0.1462.46,1280x720,1280x720,End of Day 1,SLS,90,A,Pass,End of Day 1,Pass,NaN,NaN,NaN,Pass,NaN,Pass,NaN,schedule_A,schedule_A,33,13,3,offer,Zone2,response_button_image,977.10000038147,NaN,NaN,yellowBox.png,1,0,1,0,NaN,NaN,NaN,NaN,NaN,trial_left,redBox.png,yellowBox.png,redBox.png,al1_con.png,63,32,NaN,NaN,0.85,0.15,1,0,0,0,Stable,Volatile,2.739,1.13,0.815,1.387,expert
162,1671108306527,15/12/2022 12:45:06,1671108301619,0,15/12/2022 12:45:01,109680,37,task-xjip,repeat-7g8d#1->-repeat-38fk#1,25970361,BLIND,7671893,NaN,complete,NaN,NaN,computer,Desktop or Laptop,Windows 10,Edge 108.0.1462.46,1280x720,1280x720,End of Day 1,SLS,90,A,Pass,End of Day 1,Pass,NaN,NaN,NaN,Pass,NaN,Pass,NaN,schedule_A,schedule_A,33,13,4,feedback_l,Zone7,timelimit_screen,1999.64300000001,NaN,NaN,,NaN,0,1,0,NaN,NaN,1,NaN,NaN,trial_left,redBox.png,yellowBox.png,redBox.png,al1_con.png,63,32,NaN,NaN,0.85,0.15,1,0,0,0,Stable,Volatile,2.739,1.13,0.815,1.387,expert
163,1671108306674,15/12/2022 12:45:06,1671108301768,0,15/12/2022 12:45:01,109680,37,task-xjip,repeat-7g8d#1->-repeat-38fk#1,25970361,BLIND,7671893,NaN,complete,NaN,NaN,computer,Desktop or Laptop,Windows 10,Edge 108.0.1462.46,1280x720,1280x720,End of Day 1,SLS,90,A,Pass,End of Day 1,Pass,NaN,NaN,NaN,Pass,NaN,Pass,NaN,schedule_A,schedule_A,33,13,6,end,Zone1,timelimit_screen,149.77899999998,NaN,NaN,,NaN,0,1,0,NaN,NaN,1,NaN,NaN,trial_left,redBox.png,yellowBox.png,redBox.png,al1_con.png,63,32,NaN,NaN,0.85,0.15,1,0,0,0,Stable,Volatile,2.739,1.13,0.815,1.387,expert
164,1671108308573,15/12/2022 12:45:08,1671108303652,0,15/12/2022 12:45:03,109680,37,task-xjip,repeat-7g8d#1->-repeat-38fk#1,25970361,BLIND,7671893,NaN,complete,NaN,NaN,computer,Desktop or Laptop,Windows 10,Edge 108.0.1462.46,1280x720,1280x720,End of Day 1,SLS,90,A,Pass,End of Day 1,Pass,NaN,NaN,NaN,Pass,NaN,Pass,NaN,schedule_A,schedule_A,34,20,1,Screen 1,Zone1,continue_button,1866.40000009537,NaN,NaN,,NaN,0,1,0,NaN,NaN,NaN,NaN,NaN,trial_right,redBox.png,redBox.png,yellowBox.png,al1_con.png,64,33,NaN,NaN,0.85,0.15,1,0,0,1,Stable,Volatile,3.672,0.828,0.513,2.059,expert
165,1671108309541,15/12/2022 12:45:09,1671108304635,0,15/12/2022 12:45:04,109680,37,task-xjip,repeat-7g8d#1->-repeat-38fk#1,25970361,BLIND,7671893,NaN,complete,NaN,NaN,computer,Desktop or Laptop,Windows 10,Edge 108.0.1462.46,1280x720,1280x720,End of Day 1,SLS,90,A,Pass,End of Day 1,Pass,NaN,NaN,NaN,Pass,NaN,Pass,NaN,schedule_A,schedule_A,34,20,2,individual,Zone4,timelimit_screen,999.819999999978,NaN,NaN,,NaN,0,1,0,NaN,NaN,1,NaN,NaN,trial_right,redBox.png,redBox.png,yellowBox.png,al1_con.png,64,33,NaN,NaN,0.85,0.15,1,0,0,1,Stable,Volatile,3.672,0.828,0.513,2.059,expert
166,1671108310400,15/12/2022 12:45:10,1671108305487,0,15/12/2022 12:45:05,109680,37,task-xjip,repeat-7g8d#1->-repeat-38fk#1,25970361,BLIND,7671893,NaN,complete,NaN,NaN,computer,Desktop or Laptop,Windows 10,Edge 108.0.1462.46,1280x720,1280x720,End of Day 1,SLS,90,A,Pass,End of Day 1,Pass,NaN,NaN,NaN,Pass,NaN,Pass,NaN,schedule_A,schedule_A,34,20,3,offer,Zone2,response_button_image,842.300000190735,NaN,NaN,redBox.png,1,1,0,0,NaN,NaN,NaN,NaN,NaN,trial_right,redBox.png,redBox.png,yellowBox.png,al1_con.png,64,33,NaN,NaN,0.85,0.15,1,0,0,1,Stable,Volatile,3.672,0.828,0.513,2.059,expert
167,1671108312407,15/12/2022 12:45:12,1671108307485,0,15/12/2022 12:45:07,109680,37,task-xjip,repeat-7g8d#1->-repeat-38fk#1,25970361,BLIND,7671893,NaN,complete,NaN,NaN,computer,Desktop or Laptop,Windows 10,Edge 108.0.1462.46,1280x720,1280x720,End of Day 1,SLS,90,A,Pass,End of Day 1,Pass,NaN,NaN,NaN,Pass,NaN,Pass,NaN,schedule_A,schedule_A,34,20,4,feedback_l,Zone7,timelimit_screen,1999.802,NaN,NaN,,NaN,0,1,0,NaN,NaN,1,NaN,NaN,trial_right,redBox.png,redBox.png,yellowBox.png,al1_con.png,64,33,NaN,NaN,0.85,0.15,1,0,0,1,Stable,Volatile,3.672,0.828,0.513,2.059,expert
168,1671108312539,15/12/2022 12:45:12,1671108307634,0,15/12/2022 12:45:07,109680,37,task-xjip,repeat-7g8d#1->-repeat-38fk#1,25970361,BLIND,7671893,NaN,complete,NaN,NaN,computer,Desktop or Laptop,Windows 10,Edge 108.0.1462.46,1280x720,1280x720,End of Day 1,SLS,90,A,Pass,End of Day 1,Pass,NaN,NaN,NaN,Pass,NaN,Pass,NaN,schedule_A,schedule_A,34,20,6,end,Zone1,timelimit_screen,149.949000000022,NaN,NaN,,NaN,0,1,0,NaN,NaN,1,NaN,NaN,trial_right,redBox.png,redBox.png,yellowBox.png,al1_con.png,64,33,NaN,NaN,0.85,0.15,1,0,0,1,Stable,Volatile,3.672,0.828,0.513,2.059,expert
169,1671108313873,15/12/2022 12:45:13,1671108308954,0,15/12/2022 12:45:08,109680,37,task-xjip,repeat-7g8d#1->-repeat-38fk#1,25970361,BLIND,7671893,NaN,complete,NaN,NaN,computer,Desktop or Laptop,Windows 10,Edge 108.0.1462.46,1280x720,1280x720,End of Day 1,SLS,90,A,Pass,End of Day 1,Pass,NaN,NaN,NaN,Pass,NaN,Pass,NaN,schedule_A,schedule_A,35,14,1,Screen 1,Zone1,continue_button,1304.09999990463,NaN,NaN,,NaN,0,1,0,NaN,NaN,NaN,NaN,NaN,trial_left,redBox.png,redBox.png,yellowBox.png,al1_con.png,65,34,NaN,NaN,0.85,0.15,1,1,1,1,Stable,Volatile,2.261,0.866,1.811,2.849,expert
170,1671108314871,15/12/2022 12:45:14,1671108309951,0,15/12/2022 12:45:09,109680,37,task-xjip,repeat-7g8d#1->-repeat-38fk#1,25970361,BLIND,7671893,NaN,complete,NaN,NaN,computer,Desktop or Laptop,Windows 10,Edge 108.0.1462.46,1280x720,1280x720,End of Day 1,SLS,90,A,Pass,End of Day 1,Pass,NaN,NaN,NaN,Pass,NaN,Pass,NaN,schedule_A,schedule_A,35,14,2,individual,Zone4,timelimit_screen,999.334000000003,NaN,NaN,,NaN,0,1,0,NaN,NaN,1,NaN,NaN,trial_left,redBox.png,redBox.png,yellowBox.png,al1_con.png,65,34,NaN,NaN,0.85,0.15,1,1,1,1,Stable,Volatile,2.261,0.866,1.811,2.849,expert
171,1671108316317,15/12/2022 12:45:16,1671108311403,0,15/12/2022 12:45:11,109680,37,task-xjip,repeat-7g8d#1->-repeat-38fk#1,25970361,BLIND,7671893,NaN,complete,NaN,NaN,computer,Desktop or Laptop,Windows 10,Edge 108.0.1462.46,1280x720,1280x720,End of Day 1,SLS,90,A,Pass,End of Day 1,Pass,NaN,NaN,NaN,Pass,NaN,Pass,NaN,schedule_A,schedule_A,35,14,3,offer,bluebox,response_button_image,1442.5,NaN,NaN,yellowBox.png,1,0,1,0,NaN,NaN,NaN,NaN,NaN,trial_left,redBox.png,redBox.png,yellowBox.png,al1_con.png,65,34,NaN,NaN,0.85,0.15,1,1,1,1,Stable,Volatile,2.261,0.866,1.811,2.849,expert
172,1671108318328,15/12/2022 12:45:18,1671108313399,0,15/12/2022 12:45:13,109680,37,task-xjip,repeat-7g8d#1->-repeat-38fk#1,25970361,BLIND,7671893,NaN,complete,NaN,NaN,computer,Desktop or Laptop,Windows 10,Edge 108.0.1462.46,1280x720,1280x720,End of Day 1,SLS,90,A,Pass,End of Day 1,Pass,NaN,NaN,NaN,Pass,NaN,Pass,NaN,schedule_A,schedule_A,35,14,5,feedback_r,Zone7,timelimit_screen,1999.59599999999,NaN,NaN,,NaN,0,1,0,NaN,NaN,1,NaN,NaN,trial_left,redBox.png,redBox.png,yellowBox.png,al1_con.png,65,34,NaN,NaN,0.85,0.15,1,1,1,1,Stable,Volatile,2.261,0.866,1.811,2.849,expert
173,1671108318467,15/12/2022 12:45:18,1671108313549,0,15/12/2022 12:45:13,109680,37,task-xjip,repeat-7g8d#1->-repeat-38fk#1,25970361,BLIND,7671893,NaN,complete,NaN,NaN,computer,Desktop or Laptop,Windows 10,Edge 108.0.1462.46,1280x720,1280x720,End of Day 1,SLS,90,A,Pass,End of Day 1,Pass,NaN,NaN,NaN,Pass,NaN,Pass,NaN,schedule_A,schedule_A,35,14,6,end,Zone1,timelimit_screen,150.504000000015,NaN,NaN,,NaN,0,1,0,NaN,NaN,1,NaN,NaN,trial_left,redBox.png,redBox.png,yellowBox.png,al1_con.png,65,34,NaN,NaN,0.85,0.15,1,1,1,1,Stable,Volatile,2.261,0.866,1.811,2.849,expert
