EventIndex,UTCTimestamp,UTCDate,LocalTimestamp,LocalTimezone,LocalDate,ExperimentID,ExperimentVersion,TreeNodeKey,RepeatKey,ScheduleID,ParticipantPublicID,ParticipantPrivateID,ParticipantStartingGroup,ParticipantStatus,ParticipantCompletionCode,ParticipantExternalSessionID,ParticipantDeviceType,ParticipantDevice,ParticipantOS,ParticipantBrowser,ParticipantMonitorSize,ParticipantViewportSize,Checkpoint,TaskName,TaskVersion,randomiser_6z9f,branch_kxy7,checkpoint_tqwf,branch_rtog,branch_7dgx,checkpoint_mqen,branch_yx2c,branch_3n8o,branch_f1s6,branch_x6l7,branch_21hs,Spreadsheet,SpreadsheetName,SpreadsheetRow,TrialNumber,ScreenNumber,ScreenName,ZoneName,ZoneType,ReactionTime,ReactionOnset,ResponseType,Response,Attempt,Correct,Incorrect,Dishonest,XCoordinate,YCoordinate,TimedOut,randomise_blocks,randomise_trials,display,ANSWER,left_button,right_button,advice,orderno,trialno,ShowProgressBar,image,prob_blue_corr,prob_group_corr,corr_ans,group_corr,group_choice,blue_pos,indiv_vol,soc_vol,ITI_1,ITI_2,ITI_3,ITI_4,condition
1,1671117694261,15/12/2022 15:21:34,1671117696833,0,15/12/2022 15:21:36,109680,37,task-rbyw,repeat-u7ds#1->-repeat-l3h2#1,25974544,BLIND,7672976,NaN,complete,NaN,NaN,computer,Desktop or Laptop,Windows 10,Chrome 108.0.0.0,1920x1080,1920x1080,End of Day 1,SLS,90,B,NaN,NaN,NaN,Pass,End of Day 1,Pass,NaN,Pass,NaN,Pass,schedule_B,,NaN,NaN,NaN,,,,NaN,NaN,NaN,,NaN,0,1,0,NaN,NaN,NaN,NaN,NaN,,,,,,NaN,NaN,NaN,NaN,NaN,NaN,NaN,NaN,NaN,NaN,,,NaN,NaN,NaN,NaN,
2,1671117696157,15/12/2022 15:21:36,1671117699137,0,15/12/2022 15:21:39,109680,37,task-rbyw,repeat-u7ds#1->-repeat-l3h2#1,25974544,BLIND,7672976,NaN,complete,NaN,NaN,computer,Desktop or Laptop,Windows 10,Chrome 108.0.0.0,1920x1080,1920x1080,End of Day 1,SLS,90,B,NaN,NaN,NaN,Pass,End of Day 1,Pass,NaN,Pass,NaN,Pass,schedule_B,schedule_B,1,1,1,Screen 1,Zone1,continue_button,1991.19999998808,NaN,NaN,,NaN,0,1,0,NaN,NaN,NaN,NaN,NaN,getReadyb,,,,,1,NaN,NaN,NaN,NaN,NaN,NaN,NaN,NaN,NaN,,,NaN,NaN,NaN,NaN,
3,1671117698540,15/12/2022 15:21:38,1671117701528,0,15/12/2022 15:21:41,109680,37,task-rbyw,repeat-u7ds#1->-repeat-l3h2#1,25974544,BLIND,7672976,NaN,complete,NaN,NaN,computer,Desktop or Laptop,Windows 10,Chrome 108.0.0.0,1920x1080,1920x1080,End of Day 1,SLS,90,B,NaN,NaN,NaN,Pass,End of Day 1,Pass,NaN,Pass,NaN,Pass,schedule_B,schedule_B,1,1,2,Screen 2,Zone1,continue_button,2387.60000002384,NaN,NaN,,NaN,0,1,0,NaN,NaN,NaN,NaN,NaN,getReadyb,,,,,1,NaN,NaN,NaN,NaN,NaN,NaN,NaN,NaN,NaN,,,NaN,NaN,NaN,NaN,
4,1671117701400,15/12/2022 15:21:41,1671117704376,0,15/12/2022 15:21:44,109680,37,task-rbyw,repeat-u7ds#1->-repeat-l3h2#1,25974544,BLIND,7672976,NaN,complete,NaN,NaN,computer,Desktop or Laptop,Windows 10,Chrome 108.0.0.0,1920x1080,1920x1080,End of Day 1,SLS,90,B,NaN,NaN,NaN,Pass,End of Day 1,Pass,NaN,Pass,NaN,Pass,schedule_B,schedule_B,2,1,1,Screen 1,Zone1,continue_button,2830.30000001192,NaN,NaN,,NaN,0,1,0,NaN,NaN,NaN,NaN,NaN,trial_right,greenBox.png,greenBox.png,blueBox.png,al2_uncon.png,2,1,NaN,NaN,0.85,0.15,0,0,1,0,Stable,Stable,3.471,0.525,1.66,2.529,inexpert
5,1671117702377,15/12/2022 15:21:42,1671117705369,0,15/12/2022 15:21:45,109680,37,task-rbyw,repeat-u7ds#1->-repeat-l3h2#1,25974544,BLIND,7672976,NaN,complete,NaN,NaN,computer,Desktop or Laptop,Windows 10,Chrome 108.0.0.0,1920x1080,1920x1080,End of Day 1,SLS,90,B,NaN,NaN,NaN,Pass,End of Day 1,Pass,NaN,Pass,NaN,Pass,schedule_B,schedule_B,2,1,2,individual,Zone4,timelimit_screen,999.969000000001,NaN,NaN,,NaN,0,1,0,NaN,NaN,1,NaN,NaN,trial_right,greenBox.png,greenBox.png,blueBox.png,al2_uncon.png,2,1,NaN,NaN,0.85,0.15,0,0,1,0,Stable,Stable,3.471,0.525,1.66,2.529,inexpert
6,1671117703881,15/12/2022 15:21:43,1671117706849,0,15/12/2022 15:21:46,109680,37,task-rbyw,repeat-u7ds#1->-repeat-l3h2#1,25974544,BLIND,7672976,NaN,complete,NaN,NaN,computer,Desktop or Laptop,Windows 10,Chrome 108.0.0.0,1920x1080,1920x1080,End of Day 1,SLS,90,B,NaN,NaN,NaN,Pass,End of Day 1,Pass,NaN,Pass,NaN,Pass,schedule_B,schedule_B,2,1,3,offer,Zone3,response_button_image,1473.09999999404,NaN,NaN,blueBox.png,1,0,1,0,NaN,NaN,NaN,NaN,NaN,trial_right,greenBox.png,greenBox.png,blueBox.png,al2_uncon.png,2,1,NaN,NaN,0.85,0.15,0,0,1,0,Stable,Stable,3.471,0.525,1.66,2.529,inexpert
7,1671117705858,15/12/2022 15:21:45,1671117708846,0,15/12/2022 15:21:48,109680,37,task-rbyw,repeat-u7ds#1->-repeat-l3h2#1,25974544,BLIND,7672976,NaN,complete,NaN,NaN,computer,Desktop or Laptop,Windows 10,Chrome 108.0.0.0,1920x1080,1920x1080,End of Day 1,SLS,90,B,NaN,NaN,NaN,Pass,End of Day 1,Pass,NaN,Pass,NaN,Pass,schedule_B,schedule_B,2,1,5,feedback_r,Zone7,timelimit_screen,1999.909,NaN,NaN,,NaN,0,1,0,NaN,NaN,1,NaN,NaN,trial_right,greenBox.png,greenBox.png,blueBox.png,al2_uncon.png,2,1,NaN,NaN,0.85,0.15,0,0,1,0,Stable,Stable,3.471,0.525,1.66,2.529,inexpert
8,1671117706006,15/12/2022 15:21:46,1671117708996,0,15/12/2022 15:21:48,109680,37,task-rbyw,repeat-u7ds#1->-repeat-l3h2#1,25974544,BLIND,7672976,NaN,complete,NaN,NaN,computer,Desktop or Laptop,Windows 10,Chrome 108.0.0.0,1920x1080,1920x1080,End of Day 1,SLS,90,B,NaN,NaN,NaN,Pass,End of Day 1,Pass,NaN,Pass,NaN,Pass,schedule_B,schedule_B,2,1,6,end,Zone1,timelimit_screen,150.066999999999,NaN,NaN,,NaN,0,1,0,NaN,NaN,1,NaN,NaN,trial_right,greenBox.png,greenBox.png,blueBox.png,al2_uncon.png,2,1,NaN,NaN,0.85,0.15,0,0,1,0,Stable,Stable,3.471,0.525,1.66,2.529,inexpert
9,1671117709141,15/12/2022 15:21:49,1671117711465,0,15/12/2022 15:21:51,109680,37,task-rbyw,repeat-u7ds#1->-repeat-l3h2#1,25974544,BLIND,7672976,NaN,complete,NaN,NaN,computer,Desktop or Laptop,Windows 10,Chrome 108.0.0.0,1920x1080,1920x1080,End of Day 1,SLS,90,B,NaN,NaN,NaN,Pass,End of Day 1,Pass,NaN,Pass,NaN,Pass,schedule_B,schedule_B,3,1,1,Screen 1,Zone1,continue_button,2456.59999999404,NaN,NaN,,NaN,0,1,0,NaN,NaN,NaN,NaN,NaN,trial_left,blueBox.png,greenBox.png,blueBox.png,al2_uncon.png,3,2,NaN,NaN,0.85,0.15,1,0,0,0,Stable,Stable,1.782,1.168,1.168,2.462,inexpert
10,1671117709473,15/12/2022 15:21:49,1671117712463,0,15/12/2022 15:21:52,109680,37,task-rbyw,repeat-u7ds#1->-repeat-l3h2#1,25974544,BLIND,7672976,NaN,complete,NaN,NaN,computer,Desktop or Laptop,Windows 10,Chrome 108.0.0.0,1920x1080,1920x1080,End of Day 1,SLS,90,B,NaN,NaN,NaN,Pass,End of Day 1,Pass,NaN,Pass,NaN,Pass,schedule_B,schedule_B,3,1,2,individual,Zone4,timelimit_screen,999.971,NaN,NaN,,NaN,0,1,0,NaN,NaN,1,NaN,NaN,trial_left,blueBox.png,greenBox.png,blueBox.png,al2_uncon.png,3,2,NaN,NaN,0.85,0.15,1,0,0,0,Stable,Stable,1.782,1.168,1.168,2.462,inexpert
11,1671117710757,15/12/2022 15:21:50,1671117713738,0,15/12/2022 15:21:53,109680,37,task-rbyw,repeat-u7ds#1->-repeat-l3h2#1,25974544,BLIND,7672976,NaN,complete,NaN,NaN,computer,Desktop or Laptop,Windows 10,Chrome 108.0.0.0,1920x1080,1920x1080,End of Day 1,SLS,90,B,NaN,NaN,NaN,Pass,End of Day 1,Pass,NaN,Pass,NaN,Pass,schedule_B,schedule_B,3,1,3,offer,Zone2,response_button_image,1268.89999997616,NaN,NaN,greenBox.png,1,0,1,0,NaN,NaN,NaN,NaN,NaN,trial_left,blueBox.png,greenBox.png,blueBox.png,al2_uncon.png,3,2,NaN,NaN,0.85,0.15,1,0,0,0,Stable,Stable,1.782,1.168,1.168,2.462,inexpert
12,1671117712771,15/12/2022 15:21:52,1671117715730,0,15/12/2022 15:21:55,109680,37,task-rbyw,repeat-u7ds#1->-repeat-l3h2#1,25974544,BLIND,7672976,NaN,complete,NaN,NaN,computer,Desktop or Laptop,Windows 10,Chrome 108.0.0.0,1920x1080,1920x1080,End of Day 1,SLS,90,B,NaN,NaN,NaN,Pass,End of Day 1,Pass,NaN,Pass,NaN,Pass,schedule_B,schedule_B,3,1,4,feedback_l,Zone7,timelimit_screen,1999.956,NaN,NaN,,NaN,0,1,0,NaN,NaN,1,NaN,NaN,trial_left,blueBox.png,greenBox.png,blueBox.png,al2_uncon.png,3,2,NaN,NaN,0.85,0.15,1,0,0,0,Stable,Stable,1.782,1.168,1.168,2.462,inexpert
13,1671117713260,15/12/2022 15:21:53,1671117715880,0,15/12/2022 15:21:55,109680,37,task-rbyw,repeat-u7ds#1->-repeat-l3h2#1,25974544,BLIND,7672976,NaN,complete,NaN,NaN,computer,Desktop or Laptop,Windows 10,Chrome 108.0.0.0,1920x1080,1920x1080,End of Day 1,SLS,90,B,NaN,NaN,NaN,Pass,End of Day 1,Pass,NaN,Pass,NaN,Pass,schedule_B,schedule_B,3,1,6,end,Zone1,timelimit_screen,150.048999999999,NaN,NaN,,NaN,0,1,0,NaN,NaN,1,NaN,NaN,trial_left,blueBox.png,greenBox.png,blueBox.png,al2_uncon.png,3,2,NaN,NaN,0.85,0.15,1,0,0,0,Stable,Stable,1.782,1.168,1.168,2.462,inexpert
14,1671117715926,15/12/2022 15:21:55,1671117718915,0,15/12/2022 15:21:58,109680,37,task-rbyw,repeat-u7ds#1->-repeat-l3h2#1,25974544,BLIND,7672976,NaN,complete,NaN,NaN,computer,Desktop or Laptop,Windows 10,Chrome 108.0.0.0,1920x1080,1920x1080,End of Day 1,SLS,90,B,NaN,NaN,NaN,Pass,End of Day 1,Pass,NaN,Pass,NaN,Pass,schedule_B,schedule_B,4,2,1,Screen 1,Zone1,continue_button,3024.5,NaN,NaN,,NaN,0,1,0,NaN,NaN,NaN,NaN,NaN,trial_left,blueBox.png,greenBox.png,blueBox.png,al2_uncon.png,4,3,NaN,NaN,0.85,0.15,1,0,0,0,Stable,Stable,1.983,1.181,0.538,1.588,inexpert
15,1671117717089,15/12/2022 15:21:57,1671117719913,0,15/12/2022 15:21:59,109680,37,task-rbyw,repeat-u7ds#1->-repeat-l3h2#1,25974544,BLIND,7672976,NaN,complete,NaN,NaN,computer,Desktop or Laptop,Windows 10,Chrome 108.0.0.0,1920x1080,1920x1080,End of Day 1,SLS,90,B,NaN,NaN,NaN,Pass,End of Day 1,Pass,NaN,Pass,NaN,Pass,schedule_B,schedule_B,4,2,2,individual,Zone4,timelimit_screen,999.970000000001,NaN,NaN,,NaN,0,1,0,NaN,NaN,1,NaN,NaN,trial_left,blueBox.png,greenBox.png,blueBox.png,al2_uncon.png,4,3,NaN,NaN,0.85,0.15,1,0,0,0,Stable,Stable,1.983,1.181,0.538,1.588,inexpert
16,1671117720415,15/12/2022 15:22:00,1671117723355,0,15/12/2022 15:22:03,109680,37,task-rbyw,repeat-u7ds#1->-repeat-l3h2#1,25974544,BLIND,7672976,NaN,complete,NaN,NaN,computer,Desktop or Laptop,Windows 10,Chrome 108.0.0.0,1920x1080,1920x1080,End of Day 1,SLS,90,B,NaN,NaN,NaN,Pass,End of Day 1,Pass,NaN,Pass,NaN,Pass,schedule_B,schedule_B,4,2,3,offer,bluebox,response_button_image,3435.59999999404,NaN,NaN,blueBox.png,1,1,0,0,NaN,NaN,NaN,NaN,NaN,trial_left,blueBox.png,greenBox.png,blueBox.png,al2_uncon.png,4,3,NaN,NaN,0.85,0.15,1,0,0,0,Stable,Stable,1.983,1.181,0.538,1.588,inexpert
17,1671117722960,15/12/2022 15:22:02,1671117725346,0,15/12/2022 15:22:05,109680,37,task-rbyw,repeat-u7ds#1->-repeat-l3h2#1,25974544,BLIND,7672976,NaN,complete,NaN,NaN,computer,Desktop or Laptop,Windows 10,Chrome 108.0.0.0,1920x1080,1920x1080,End of Day 1,SLS,90,B,NaN,NaN,NaN,Pass,End of Day 1,Pass,NaN,Pass,NaN,Pass,schedule_B,schedule_B,4,2,5,feedback_r,Zone7,timelimit_screen,1999.947,NaN,NaN,,NaN,0,1,0,NaN,NaN,1,NaN,NaN,trial_left,blueBox.png,greenBox.png,blueBox.png,al2_uncon.png,4,3,NaN,NaN,0.85,0.15,1,0,0,0,Stable,Stable,1.983,1.181,0.538,1.588,inexpert
18,1671117723045,15/12/2022 15:22:03,1671117725496,0,15/12/2022 15:22:05,109680,37,task-rbyw,repeat-u7ds#1->-repeat-l3h2#1,25974544,BLIND,7672976,NaN,complete,NaN,NaN,computer,Desktop or Laptop,Windows 10,Chrome 108.0.0.0,1920x1080,1920x1080,End of Day 1,SLS,90,B,NaN,NaN,NaN,Pass,End of Day 1,Pass,NaN,Pass,NaN,Pass,schedule_B,schedule_B,4,2,6,end,Zone1,timelimit_screen,149.958999999999,NaN,NaN,,NaN,0,1,0,NaN,NaN,1,NaN,NaN,trial_left,blueBox.png,greenBox.png,blueBox.png,al2_uncon.png,4,3,NaN,NaN,0.85,0.15,1,0,0,0,Stable,Stable,1.983,1.181,0.538,1.588,inexpert
19,1671117723998,15/12/2022 15:22:03,1671117726827,0,15/12/2022 15:22:06,109680,37,task-rbyw,repeat-u7ds#1->-repeat-l3h2#1,25974544,BLIND,7672976,NaN,complete,NaN,NaN,computer,Desktop or Laptop,Windows 10,Chrome 108.0.0.0,1920x1080,1920x1080,End of Day 1,SLS,90,B,NaN,NaN,NaN,Pass,End of Day 1,Pass,NaN,Pass,NaN,Pass,schedule_B,schedule_B,5,2,1,Screen 1,Zone1,continue_button,1321,NaN,NaN,,NaN,0,1,0,NaN,NaN,NaN,NaN,NaN,trial_right,greenBox.png,greenBox.png,blueBox.png,al2_uncon.png,5,4,NaN,NaN,0.85,0.15,0,0,1,0,Stable,Stable,1.529,0.891,1.004,1,inexpert
20,1671117724847,15/12/2022 15:22:04,1671117727813,0,15/12/2022 15:22:07,109680,37,task-rbyw,repeat-u7ds#1->-repeat-l3h2#1,25974544,BLIND,7672976,NaN,complete,NaN,NaN,computer,Desktop or Laptop,Windows 10,Chrome 108.0.0.0,1920x1080,1920x1080,End of Day 1,SLS,90,B,NaN,NaN,NaN,Pass,End of Day 1,Pass,NaN,Pass,NaN,Pass,schedule_B,schedule_B,5,2,2,individual,Zone4,timelimit_screen,999.982,NaN,NaN,,NaN,0,1,0,NaN,NaN,1,NaN,NaN,trial_right,greenBox.png,greenBox.png,blueBox.png,al2_uncon.png,5,4,NaN,NaN,0.85,0.15,0,0,1,0,Stable,Stable,1.529,0.891,1.004,1,inexpert
21,1671117725916,15/12/2022 15:22:05,1671117728628,0,15/12/2022 15:22:08,109680,37,task-rbyw,repeat-u7ds#1->-repeat-l3h2#1,25974544,BLIND,7672976,NaN,complete,NaN,NaN,computer,Desktop or Laptop,Windows 10,Chrome 108.0.0.0,1920x1080,1920x1080,End of Day 1,SLS,90,B,NaN,NaN,NaN,Pass,End of Day 1,Pass,NaN,Pass,NaN,Pass,schedule_B,schedule_B,5,2,3,offer,Zone2,response_button_image,808.699999988079,NaN,NaN,greenBox.png,1,1,0,0,NaN,NaN,NaN,NaN,NaN,trial_right,greenBox.png,greenBox.png,blueBox.png,al2_uncon.png,5,4,NaN,NaN,0.85,0.15,0,0,1,0,Stable,Stable,1.529,0.891,1.004,1,inexpert
22,1671117728712,15/12/2022 15:22:08,1671117730613,0,15/12/2022 15:22:10,109680,37,task-rbyw,repeat-u7ds#1->-repeat-l3h2#1,25974544,BLIND,7672976,NaN,complete,NaN,NaN,computer,Desktop or Laptop,Windows 10,Chrome 108.0.0.0,1920x1080,1920x1080,End of Day 1,SLS,90,B,NaN,NaN,NaN,Pass,End of Day 1,Pass,NaN,Pass,NaN,Pass,schedule_B,schedule_B,5,2,4,feedback_l,Zone7,timelimit_screen,1999.963,NaN,NaN,,NaN,0,1,0,NaN,NaN,1,NaN,NaN,trial_right,greenBox.png,greenBox.png,blueBox.png,al2_uncon.png,5,4,NaN,NaN,0.85,0.15,0,0,1,0,Stable,Stable,1.529,0.891,1.004,1,inexpert
23,1671117728799,15/12/2022 15:22:08,1671117730763,0,15/12/2022 15:22:10,109680,37,task-rbyw,repeat-u7ds#1->-repeat-l3h2#1,25974544,BLIND,7672976,NaN,complete,NaN,NaN,computer,Desktop or Laptop,Windows 10,Chrome 108.0.0.0,1920x1080,1920x1080,End of Day 1,SLS,90,B,NaN,NaN,NaN,Pass,End of Day 1,Pass,NaN,Pass,NaN,Pass,schedule_B,schedule_B,5,2,6,end,Zone1,timelimit_screen,149.955000000002,NaN,NaN,,NaN,0,1,0,NaN,NaN,1,NaN,NaN,trial_right,greenBox.png,greenBox.png,blueBox.png,al2_uncon.png,5,4,NaN,NaN,0.85,0.15,0,0,1,0,Stable,Stable,1.529,0.891,1.004,1,inexpert
24,1671117728799,15/12/2022 15:22:08,1671117731588,0,15/12/2022 15:22:11,109680,37,task-rbyw,repeat-u7ds#1->-repeat-l3h2#1,25974544,BLIND,7672976,NaN,complete,NaN,NaN,computer,Desktop or Laptop,Windows 10,Chrome 108.0.0.0,1920x1080,1920x1080,End of Day 1,SLS,90,B,NaN,NaN,NaN,Pass,End of Day 1,Pass,NaN,Pass,NaN,Pass,schedule_B,schedule_B,6,3,1,Screen 1,Zone1,continue_button,811.40000000596,NaN,NaN,,NaN,0,1,0,NaN,NaN,NaN,NaN,NaN,trial_left,blueBox.png,greenBox.png,blueBox.png,al2_uncon.png,6,5,NaN,NaN,0.85,0.15,1,0,0,0,Stable,Stable,1.832,1.118,0.752,1.79,inexpert
25,1671117729711,15/12/2022 15:22:09,1671117732579,0,15/12/2022 15:22:12,109680,37,task-rbyw,repeat-u7ds#1->-repeat-l3h2#1,25974544,BLIND,7672976,NaN,complete,NaN,NaN,computer,Desktop or Laptop,Windows 10,Chrome 108.0.0.0,1920x1080,1920x1080,End of Day 1,SLS,90,B,NaN,NaN,NaN,Pass,End of Day 1,Pass,NaN,Pass,NaN,Pass,schedule_B,schedule_B,6,3,2,individual,Zone4,timelimit_screen,999.969000000005,NaN,NaN,,NaN,0,1,0,NaN,NaN,1,NaN,NaN,trial_left,blueBox.png,greenBox.png,blueBox.png,al2_uncon.png,6,5,NaN,NaN,0.85,0.15,1,0,0,0,Stable,Stable,1.832,1.118,0.752,1.79,inexpert
26,1671117731432,15/12/2022 15:22:11,1671117733781,0,15/12/2022 15:22:13,109680,37,task-rbyw,repeat-u7ds#1->-repeat-l3h2#1,25974544,BLIND,7672976,NaN,complete,NaN,NaN,computer,Desktop or Laptop,Windows 10,Chrome 108.0.0.0,1920x1080,1920x1080,End of Day 1,SLS,90,B,NaN,NaN,NaN,Pass,End of Day 1,Pass,NaN,Pass,NaN,Pass,schedule_B,schedule_B,6,3,3,offer,bluebox,response_button_image,1194.30000001192,NaN,NaN,blueBox.png,1,1,0,0,NaN,NaN,NaN,NaN,NaN,trial_left,blueBox.png,greenBox.png,blueBox.png,al2_uncon.png,6,5,NaN,NaN,0.85,0.15,1,0,0,0,Stable,Stable,1.832,1.118,0.752,1.79,inexpert
27,1671117732834,15/12/2022 15:22:12,1671117735780,0,15/12/2022 15:22:15,109680,37,task-rbyw,repeat-u7ds#1->-repeat-l3h2#1,25974544,BLIND,7672976,NaN,complete,NaN,NaN,computer,Desktop or Laptop,Windows 10,Chrome 108.0.0.0,1920x1080,1920x1080,End of Day 1,SLS,90,B,NaN,NaN,NaN,Pass,End of Day 1,Pass,NaN,Pass,NaN,Pass,schedule_B,schedule_B,6,3,5,feedback_r,Zone7,timelimit_screen,1999.996,NaN,NaN,,NaN,0,1,0,NaN,NaN,1,NaN,NaN,trial_left,blueBox.png,greenBox.png,blueBox.png,al2_uncon.png,6,5,NaN,NaN,0.85,0.15,1,0,0,0,Stable,Stable,1.832,1.118,0.752,1.79,inexpert
28,1671117732986,15/12/2022 15:22:12,1671117735929,0,15/12/2022 15:22:15,109680,37,task-rbyw,repeat-u7ds#1->-repeat-l3h2#1,25974544,BLIND,7672976,NaN,complete,NaN,NaN,computer,Desktop or Laptop,Windows 10,Chrome 108.0.0.0,1920x1080,1920x1080,End of Day 1,SLS,90,B,NaN,NaN,NaN,Pass,End of Day 1,Pass,NaN,Pass,NaN,Pass,schedule_B,schedule_B,6,3,6,end,Zone1,timelimit_screen,149.951999999997,NaN,NaN,,NaN,0,1,0,NaN,NaN,1,NaN,NaN,trial_left,blueBox.png,greenBox.png,blueBox.png,al2_uncon.png,6,5,NaN,NaN,0.85,0.15,1,0,0,0,Stable,Stable,1.832,1.118,0.752,1.79,inexpert
29,1671117734154,15/12/2022 15:22:14,1671117737093,0,15/12/2022 15:22:17,109680,37,task-rbyw,repeat-u7ds#1->-repeat-l3h2#1,25974544,BLIND,7672976,NaN,complete,NaN,NaN,computer,Desktop or Laptop,Windows 10,Chrome 108.0.0.0,1920x1080,1920x1080,End of Day 1,SLS,90,B,NaN,NaN,NaN,Pass,End of Day 1,Pass,NaN,Pass,NaN,Pass,schedule_B,schedule_B,7,3,1,Screen 1,Zone1,continue_button,1148,NaN,NaN,,NaN,0,1,0,NaN,NaN,NaN,NaN,NaN,trial_right,greenBox.png,greenBox.png,blueBox.png,al2_uncon.png,7,6,NaN,NaN,0.15,0.15,0,0,1,0,Stable,Stable,3.294,0.815,1.282,2.664,inexpert
30,1671117735747,15/12/2022 15:22:15,1671117738079,0,15/12/2022 15:22:18,109680,37,task-rbyw,repeat-u7ds#1->-repeat-l3h2#1,25974544,BLIND,7672976,NaN,complete,NaN,NaN,computer,Desktop or Laptop,Windows 10,Chrome 108.0.0.0,1920x1080,1920x1080,End of Day 1,SLS,90,B,NaN,NaN,NaN,Pass,End of Day 1,Pass,NaN,Pass,NaN,Pass,schedule_B,schedule_B,7,3,2,individual,Zone4,timelimit_screen,1000.024,NaN,NaN,,NaN,0,1,0,NaN,NaN,1,NaN,NaN,trial_right,greenBox.png,greenBox.png,blueBox.png,al2_uncon.png,7,6,NaN,NaN,0.15,0.15,0,0,1,0,Stable,Stable,3.294,0.815,1.282,2.664,inexpert
31,1671117736887,15/12/2022 15:22:16,1671117739861,0,15/12/2022 15:22:19,109680,37,task-rbyw,repeat-u7ds#1->-repeat-l3h2#1,25974544,BLIND,7672976,NaN,complete,NaN,NaN,computer,Desktop or Laptop,Windows 10,Chrome 108.0.0.0,1920x1080,1920x1080,End of Day 1,SLS,90,B,NaN,NaN,NaN,Pass,End of Day 1,Pass,NaN,Pass,NaN,Pass,schedule_B,schedule_B,7,3,3,offer,Zone2,response_button_image,1774.59999999404,NaN,NaN,greenBox.png,1,1,0,0,NaN,NaN,NaN,NaN,NaN,trial_right,greenBox.png,greenBox.png,blueBox.png,al2_uncon.png,7,6,NaN,NaN,0.15,0.15,0,0,1,0,Stable,Stable,3.294,0.815,1.282,2.664,inexpert
32,1671117739744,15/12/2022 15:22:19,1671117741846,0,15/12/2022 15:22:21,109680,37,task-rbyw,repeat-u7ds#1->-repeat-l3h2#1,25974544,BLIND,7672976,NaN,complete,NaN,NaN,computer,Desktop or Laptop,Windows 10,Chrome 108.0.0.0,1920x1080,1920x1080,End of Day 1,SLS,90,B,NaN,NaN,NaN,Pass,End of Day 1,Pass,NaN,Pass,NaN,Pass,schedule_B,schedule_B,7,3,4,feedback_l,Zone7,timelimit_screen,1999.951,NaN,NaN,,NaN,0,1,0,NaN,NaN,1,NaN,NaN,trial_right,greenBox.png,greenBox.png,blueBox.png,al2_uncon.png,7,6,NaN,NaN,0.15,0.15,0,0,1,0,Stable,Stable,3.294,0.815,1.282,2.664,inexpert
33,1671117740567,15/12/2022 15:22:20,1671117741996,0,15/12/2022 15:22:21,109680,37,task-rbyw,repeat-u7ds#1->-repeat-l3h2#1,25974544,BLIND,7672976,NaN,complete,NaN,NaN,computer,Desktop or Laptop,Windows 10,Chrome 108.0.0.0,1920x1080,1920x1080,End of Day 1,SLS,90,B,NaN,NaN,NaN,Pass,End of Day 1,Pass,NaN,Pass,NaN,Pass,schedule_B,schedule_B,7,3,6,end,Zone1,timelimit_screen,150.055999999997,NaN,NaN,,NaN,0,1,0,NaN,NaN,1,NaN,NaN,trial_right,greenBox.png,greenBox.png,blueBox.png,al2_uncon.png,7,6,NaN,NaN,0.15,0.15,0,0,1,0,Stable,Stable,3.294,0.815,1.282,2.664,inexpert
34,1671117740656,15/12/2022 15:22:20,1671117743205,0,15/12/2022 15:22:23,109680,37,task-rbyw,repeat-u7ds#1->-repeat-l3h2#1,25974544,BLIND,7672976,NaN,complete,NaN,NaN,computer,Desktop or Laptop,Windows 10,Chrome 108.0.0.0,1920x1080,1920x1080,End of Day 1,SLS,90,B,NaN,NaN,NaN,Pass,End of Day 1,Pass,NaN,Pass,NaN,Pass,schedule_B,schedule_B,8,4,1,Screen 1,Zone1,continue_button,1198.09999999404,NaN,NaN,,NaN,0,1,0,NaN,NaN,NaN,NaN,NaN,trial_left,greenBox.png,blueBox.png,greenBox.png,al2_uncon.png,8,7,NaN,NaN,0.15,0.15,0,0,1,1,Stable,Stable,3.269,1.37,1.786,2.328,inexpert
35,1671117741214,15/12/2022 15:22:21,1671117744196,0,15/12/2022 15:22:24,109680,37,task-rbyw,repeat-u7ds#1->-repeat-l3h2#1,25974544,BLIND,7672976,NaN,complete,NaN,NaN,computer,Desktop or Laptop,Windows 10,Chrome 108.0.0.0,1920x1080,1920x1080,End of Day 1,SLS,90,B,NaN,NaN,NaN,Pass,End of Day 1,Pass,NaN,Pass,NaN,Pass,schedule_B,schedule_B,8,4,2,individual,Zone4,timelimit_screen,999.922999999995,NaN,NaN,,NaN,0,1,0,NaN,NaN,1,NaN,NaN,trial_left,greenBox.png,blueBox.png,greenBox.png,al2_uncon.png,8,7,NaN,NaN,0.15,0.15,0,0,1,1,Stable,Stable,3.269,1.37,1.786,2.328,inexpert
36,1671117742292,15/12/2022 15:22:22,1671117745133,0,15/12/2022 15:22:25,109680,37,task-rbyw,repeat-u7ds#1->-repeat-l3h2#1,25974544,BLIND,7672976,NaN,complete,NaN,NaN,computer,Desktop or Laptop,Windows 10,Chrome 108.0.0.0,1920x1080,1920x1080,End of Day 1,SLS,90,B,NaN,NaN,NaN,Pass,End of Day 1,Pass,NaN,Pass,NaN,Pass,schedule_B,schedule_B,8,4,3,offer,bluebox,response_button_image,930.899999976158,NaN,NaN,greenBox.png,1,1,0,0,NaN,NaN,NaN,NaN,NaN,trial_left,greenBox.png,blueBox.png,greenBox.png,al2_uncon.png,8,7,NaN,NaN,0.15,0.15,0,0,1,1,Stable,Stable,3.269,1.37,1.786,2.328,inexpert
37,1671117744252,15/12/2022 15:22:24,1671117747129,0,15/12/2022 15:22:27,109680,37,task-rbyw,repeat-u7ds#1->-repeat-l3h2#1,25974544,BLIND,7672976,NaN,complete,NaN,NaN,computer,Desktop or Laptop,Windows 10,Chrome 108.0.0.0,1920x1080,1920x1080,End of Day 1,SLS,90,B,NaN,NaN,NaN,Pass,End of Day 1,Pass,NaN,Pass,NaN,Pass,schedule_B,schedule_B,8,4,5,feedback_r,Zone7,timelimit_screen,1999.945,NaN,NaN,,NaN,0,1,0,NaN,NaN,1,NaN,NaN,trial_left,greenBox.png,blueBox.png,greenBox.png,al2_uncon.png,8,7,NaN,NaN,0.15,0.15,0,0,1,1,Stable,Stable,3.269,1.37,1.786,2.328,inexpert
38,1671117744380,15/12/2022 15:22:24,1671117747279,0,15/12/2022 15:22:27,109680,37,task-rbyw,repeat-u7ds#1->-repeat-l3h2#1,25974544,BLIND,7672976,NaN,complete,NaN,NaN,computer,Desktop or Laptop,Windows 10,Chrome 108.0.0.0,1920x1080,1920x1080,End of Day 1,SLS,90,B,NaN,NaN,NaN,Pass,End of Day 1,Pass,NaN,Pass,NaN,Pass,schedule_B,schedule_B,8,4,6,end,Zone1,timelimit_screen,149.953999999998,NaN,NaN,,NaN,0,1,0,NaN,NaN,1,NaN,NaN,trial_left,greenBox.png,blueBox.png,greenBox.png,al2_uncon.png,8,7,NaN,NaN,0.15,0.15,0,0,1,1,Stable,Stable,3.269,1.37,1.786,2.328,inexpert
39,1671117745083,15/12/2022 15:22:25,1671117748070,0,15/12/2022 15:22:28,109680,37,task-rbyw,repeat-u7ds#1->-repeat-l3h2#1,25974544,BLIND,7672976,NaN,complete,NaN,NaN,computer,Desktop or Laptop,Windows 10,Chrome 108.0.0.0,1920x1080,1920x1080,End of Day 1,SLS,90,B,NaN,NaN,NaN,Pass,End of Day 1,Pass,NaN,Pass,NaN,Pass,schedule_B,schedule_B,9,4,1,Screen 1,Zone1,continue_button,779.799999982119,NaN,NaN,,NaN,0,1,0,NaN,NaN,NaN,NaN,NaN,trial_right,blueBox.png,blueBox.png,greenBox.png,al2_uncon.png,9,8,NaN,NaN,0.15,0.15,1,0,0,1,Stable,Stable,3.975,0.576,1.256,1.807,inexpert
40,1671117746083,15/12/2022 15:22:26,1671117749062,0,15/12/2022 15:22:29,109680,37,task-rbyw,repeat-u7ds#1->-repeat-l3h2#1,25974544,BLIND,7672976,NaN,complete,NaN,NaN,computer,Desktop or Laptop,Windows 10,Chrome 108.0.0.0,1920x1080,1920x1080,End of Day 1,SLS,90,B,NaN,NaN,NaN,Pass,End of Day 1,Pass,NaN,Pass,NaN,Pass,schedule_B,schedule_B,9,4,2,individual,Zone4,timelimit_screen,999.957999999999,NaN,NaN,,NaN,0,1,0,NaN,NaN,1,NaN,NaN,trial_right,blueBox.png,blueBox.png,greenBox.png,al2_uncon.png,9,8,NaN,NaN,0.15,0.15,1,0,0,1,Stable,Stable,3.975,0.576,1.256,1.807,inexpert
41,1671117746939,15/12/2022 15:22:26,1671117749790,0,15/12/2022 15:22:29,109680,37,task-rbyw,repeat-u7ds#1->-repeat-l3h2#1,25974544,BLIND,7672976,NaN,complete,NaN,NaN,computer,Desktop or Laptop,Windows 10,Chrome 108.0.0.0,1920x1080,1920x1080,End of Day 1,SLS,90,B,NaN,NaN,NaN,Pass,End of Day 1,Pass,NaN,Pass,NaN,Pass,schedule_B,schedule_B,9,4,3,offer,Zone2,response_button_image,721.09999999404,NaN,NaN,blueBox.png,1,1,0,0,NaN,NaN,NaN,NaN,NaN,trial_right,blueBox.png,blueBox.png,greenBox.png,al2_uncon.png,9,8,NaN,NaN,0.15,0.15,1,0,0,1,Stable,Stable,3.975,0.576,1.256,1.807,inexpert
42,1671117748802,15/12/2022 15:22:28,1671117751779,0,15/12/2022 15:22:31,109680,37,task-rbyw,repeat-u7ds#1->-repeat-l3h2#1,25974544,BLIND,7672976,NaN,complete,NaN,NaN,computer,Desktop or Laptop,Windows 10,Chrome 108.0.0.0,1920x1080,1920x1080,End of Day 1,SLS,90,B,NaN,NaN,NaN,Pass,End of Day 1,Pass,NaN,Pass,NaN,Pass,schedule_B,schedule_B,9,4,4,feedback_l,Zone7,timelimit_screen,1999.957,NaN,NaN,,NaN,0,1,0,NaN,NaN,1,NaN,NaN,trial_right,blueBox.png,blueBox.png,greenBox.png,al2_uncon.png,9,8,NaN,NaN,0.15,0.15,1,0,0,1,Stable,Stable,3.975,0.576,1.256,1.807,inexpert
43,1671117748960,15/12/2022 15:22:28,1671117751929,0,15/12/2022 15:22:31,109680,37,task-rbyw,repeat-u7ds#1->-repeat-l3h2#1,25974544,BLIND,7672976,NaN,complete,NaN,NaN,computer,Desktop or Laptop,Windows 10,Chrome 108.0.0.0,1920x1080,1920x1080,End of Day 1,SLS,90,B,NaN,NaN,NaN,Pass,End of Day 1,Pass,NaN,Pass,NaN,Pass,schedule_B,schedule_B,9,4,6,end,Zone1,timelimit_screen,150.010999999999,NaN,NaN,,NaN,0,1,0,NaN,NaN,1,NaN,NaN,trial_right,blueBox.png,blueBox.png,greenBox.png,al2_uncon.png,9,8,NaN,NaN,0.15,0.15,1,0,0,1,Stable,Stable,3.975,0.576,1.256,1.807,inexpert
44,1671117750238,15/12/2022 15:22:30,1671117753198,0,15/12/2022 15:22:33,109680,37,task-rbyw,repeat-u7ds#1->-repeat-l3h2#1,25974544,BLIND,7672976,NaN,complete,NaN,NaN,computer,Desktop or Laptop,Windows 10,Chrome 108.0.0.0,1920x1080,1920x1080,End of Day 1,SLS,90,B,NaN,NaN,NaN,Pass,End of Day 1,Pass,NaN,Pass,NaN,Pass,schedule_B,schedule_B,10,5,1,Screen 1,Zone1,continue_button,1257.39999997616,NaN,NaN,,NaN,0,1,0,NaN,NaN,NaN,NaN,NaN,trial_left,greenBox.png,blueBox.png,greenBox.png,al2_uncon.png,10,9,NaN,NaN,0.15,0.15,0,0,1,1,Stable,Stable,3.798,1.055,1.559,2.042,inexpert
45,1671117751221,15/12/2022 15:22:31,1671117754196,0,15/12/2022 15:22:34,109680,37,task-rbyw,repeat-u7ds#1->-repeat-l3h2#1,25974544,BLIND,7672976,NaN,complete,NaN,NaN,computer,Desktop or Laptop,Windows 10,Chrome 108.0.0.0,1920x1080,1920x1080,End of Day 1,SLS,90,B,NaN,NaN,NaN,Pass,End of Day 1,Pass,NaN,Pass,NaN,Pass,schedule_B,schedule_B,10,5,2,individual,Zone4,timelimit_screen,999.971999999994,NaN,NaN,,NaN,0,1,0,NaN,NaN,1,NaN,NaN,trial_left,greenBox.png,blueBox.png,greenBox.png,al2_uncon.png,10,9,NaN,NaN,0.15,0.15,0,0,1,1,Stable,Stable,3.798,1.055,1.559,2.042,inexpert
46,1671117752104,15/12/2022 15:22:32,1671117755079,0,15/12/2022 15:22:35,109680,37,task-rbyw,repeat-u7ds#1->-repeat-l3h2#1,25974544,BLIND,7672976,NaN,complete,NaN,NaN,computer,Desktop or Laptop,Windows 10,Chrome 108.0.0.0,1920x1080,1920x1080,End of Day 1,SLS,90,B,NaN,NaN,NaN,Pass,End of Day 1,Pass,NaN,Pass,NaN,Pass,schedule_B,schedule_B,10,5,3,offer,bluebox,response_button_image,875.90000000596,NaN,NaN,greenBox.png,1,1,0,0,NaN,NaN,NaN,NaN,NaN,trial_left,greenBox.png,blueBox.png,greenBox.png,al2_uncon.png,10,9,NaN,NaN,0.15,0.15,0,0,1,1,Stable,Stable,3.798,1.055,1.559,2.042,inexpert
47,1671117754153,15/12/2022 15:22:34,1671117757062,0,15/12/2022 15:22:37,109680,37,task-rbyw,repeat-u7ds#1->-repeat-l3h2#1,25974544,BLIND,7672976,NaN,complete,NaN,NaN,computer,Desktop or Laptop,Windows 10,Chrome 108.0.0.0,1920x1080,1920x1080,End of Day 1,SLS,90,B,NaN,NaN,NaN,Pass,End of Day 1,Pass,NaN,Pass,NaN,Pass,schedule_B,schedule_B,10,5,5,feedback_r,Zone7,timelimit_screen,2000.02,NaN,NaN,,NaN,0,1,0,NaN,NaN,1,NaN,NaN,trial_left,greenBox.png,blueBox.png,greenBox.png,al2_uncon.png,10,9,NaN,NaN,0.15,0.15,0,0,1,1,Stable,Stable,3.798,1.055,1.559,2.042,inexpert
48,1671117754233,15/12/2022 15:22:34,1671117757212,0,15/12/2022 15:22:37,109680,37,task-rbyw,repeat-u7ds#1->-repeat-l3h2#1,25974544,BLIND,7672976,NaN,complete,NaN,NaN,computer,Desktop or Laptop,Windows 10,Chrome 108.0.0.0,1920x1080,1920x1080,End of Day 1,SLS,90,B,NaN,NaN,NaN,Pass,End of Day 1,Pass,NaN,Pass,NaN,Pass,schedule_B,schedule_B,10,5,6,end,Zone1,timelimit_screen,150.001000000004,NaN,NaN,,NaN,0,1,0,NaN,NaN,1,NaN,NaN,trial_left,greenBox.png,blueBox.png,greenBox.png,al2_uncon.png,10,9,NaN,NaN,0.15,0.15,0,0,1,1,Stable,Stable,3.798,1.055,1.559,2.042,inexpert
49,1671117755228,15/12/2022 15:22:35,1671117758207,0,15/12/2022 15:22:38,109680,37,task-rbyw,repeat-u7ds#1->-repeat-l3h2#1,25974544,BLIND,7672976,NaN,complete,NaN,NaN,computer,Desktop or Laptop,Windows 10,Chrome 108.0.0.0,1920x1080,1920x1080,End of Day 1,SLS,90,B,NaN,NaN,NaN,Pass,End of Day 1,Pass,NaN,Pass,NaN,Pass,schedule_B,schedule_B,11,5,1,Screen 1,Zone1,continue_button,984.200000017881,NaN,NaN,,NaN,0,1,0,NaN,NaN,NaN,NaN,NaN,trial_right,greenBox.png,greenBox.png,blueBox.png,al2_uncon.png,21,10,NaN,NaN,0.15,0.15,0,0,1,0,Stable,Stable,1.857,0.5,1.294,2.916,inexpert
50,1671117756214,15/12/2022 15:22:36,1671117759196,0,15/12/2022 15:22:39,109680,37,task-rbyw,repeat-u7ds#1->-repeat-l3h2#1,25974544,BLIND,7672976,NaN,complete,NaN,NaN,computer,Desktop or Laptop,Windows 10,Chrome 108.0.0.0,1920x1080,1920x1080,End of Day 1,SLS,90,B,NaN,NaN,NaN,Pass,End of Day 1,Pass,NaN,Pass,NaN,Pass,schedule_B,schedule_B,11,5,2,individual,Zone4,timelimit_screen,999.970000000001,NaN,NaN,,NaN,0,1,0,NaN,NaN,1,NaN,NaN,trial_right,greenBox.png,greenBox.png,blueBox.png,al2_uncon.png,21,10,NaN,NaN,0.15,0.15,0,0,1,0,Stable,Stable,1.857,0.5,1.294,2.916,inexpert
51,1671117757025,15/12/2022 15:22:37,1671117760007,0,15/12/2022 15:22:40,109680,37,task-rbyw,repeat-u7ds#1->-repeat-l3h2#1,25974544,BLIND,7672976,NaN,complete,NaN,NaN,computer,Desktop or Laptop,Windows 10,Chrome 108.0.0.0,1920x1080,1920x1080,End of Day 1,SLS,90,B,NaN,NaN,NaN,Pass,End of Day 1,Pass,NaN,Pass,NaN,Pass,schedule_B,schedule_B,11,5,3,offer,Zone2,response_button_image,805.40000000596,NaN,NaN,greenBox.png,1,1,0,0,NaN,NaN,NaN,NaN,NaN,trial_right,greenBox.png,greenBox.png,blueBox.png,al2_uncon.png,21,10,NaN,NaN,0.15,0.15,0,0,1,0,Stable,Stable,1.857,0.5,1.294,2.916,inexpert
52,1671117759015,15/12/2022 15:22:39,1671117761995,0,15/12/2022 15:22:41,109680,37,task-rbyw,repeat-u7ds#1->-repeat-l3h2#1,25974544,BLIND,7672976,NaN,complete,NaN,NaN,computer,Desktop or Laptop,Windows 10,Chrome 108.0.0.0,1920x1080,1920x1080,End of Day 1,SLS,90,B,NaN,NaN,NaN,Pass,End of Day 1,Pass,NaN,Pass,NaN,Pass,schedule_B,schedule_B,11,5,4,feedback_l,Zone7,timelimit_screen,1999.971,NaN,NaN,,NaN,0,1,0,NaN,NaN,1,NaN,NaN,trial_right,greenBox.png,greenBox.png,blueBox.png,al2_uncon.png,21,10,NaN,NaN,0.15,0.15,0,0,1,0,Stable,Stable,1.857,0.5,1.294,2.916,inexpert
53,1671117759163,15/12/2022 15:22:39,1671117762145,0,15/12/2022 15:22:42,109680,37,task-rbyw,repeat-u7ds#1->-repeat-l3h2#1,25974544,BLIND,7672976,NaN,complete,NaN,NaN,computer,Desktop or Laptop,Windows 10,Chrome 108.0.0.0,1920x1080,1920x1080,End of Day 1,SLS,90,B,NaN,NaN,NaN,Pass,End of Day 1,Pass,NaN,Pass,NaN,Pass,schedule_B,schedule_B,11,5,6,end,Zone1,timelimit_screen,150.048999999999,NaN,NaN,,NaN,0,1,0,NaN,NaN,1,NaN,NaN,trial_right,greenBox.png,greenBox.png,blueBox.png,al2_uncon.png,21,10,NaN,NaN,0.15,0.15,0,0,1,0,Stable,Stable,1.857,0.5,1.294,2.916,inexpert
54,1671117760194,15/12/2022 15:22:40,1671117763175,0,15/12/2022 15:22:43,109680,37,task-rbyw,repeat-u7ds#1->-repeat-l3h2#1,25974544,BLIND,7672976,NaN,complete,NaN,NaN,computer,Desktop or Laptop,Windows 10,Chrome 108.0.0.0,1920x1080,1920x1080,End of Day 1,SLS,90,B,NaN,NaN,NaN,Pass,End of Day 1,Pass,NaN,Pass,NaN,Pass,schedule_B,schedule_B,12,6,1,Screen 1,Zone1,continue_button,1019.40000000596,NaN,NaN,,NaN,0,1,0,NaN,NaN,NaN,NaN,NaN,trial_left,blueBox.png,greenBox.png,blueBox.png,al2_uncon.png,22,11,NaN,NaN,0.85,0.15,1,0,0,0,Stable,Stable,1.126,1.849,1.483,1.689,inexpert
55,1671117761238,15/12/2022 15:22:41,1671117764162,0,15/12/2022 15:22:44,109680,37,task-rbyw,repeat-u7ds#1->-repeat-l3h2#1,25974544,BLIND,7672976,NaN,complete,NaN,NaN,computer,Desktop or Laptop,Windows 10,Chrome 108.0.0.0,1920x1080,1920x1080,End of Day 1,SLS,90,B,NaN,NaN,NaN,Pass,End of Day 1,Pass,NaN,Pass,NaN,Pass,schedule_B,schedule_B,12,6,2,individual,Zone4,timelimit_screen,999.930000000008,NaN,NaN,,NaN,0,1,0,NaN,NaN,1,NaN,NaN,trial_left,blueBox.png,greenBox.png,blueBox.png,al2_uncon.png,22,11,NaN,NaN,0.85,0.15,1,0,0,0,Stable,Stable,1.126,1.849,1.483,1.689,inexpert
56,1671117761917,15/12/2022 15:22:41,1671117764896,0,15/12/2022 15:22:44,109680,37,task-rbyw,repeat-u7ds#1->-repeat-l3h2#1,25974544,BLIND,7672976,NaN,complete,NaN,NaN,computer,Desktop or Laptop,Windows 10,Chrome 108.0.0.0,1920x1080,1920x1080,End of Day 1,SLS,90,B,NaN,NaN,NaN,Pass,End of Day 1,Pass,NaN,Pass,NaN,Pass,schedule_B,schedule_B,12,6,3,offer,bluebox,response_button_image,727.699999988079,NaN,NaN,blueBox.png,1,1,0,0,NaN,NaN,NaN,NaN,NaN,trial_left,blueBox.png,greenBox.png,blueBox.png,al2_uncon.png,22,11,NaN,NaN,0.85,0.15,1,0,0,0,Stable,Stable,1.126,1.849,1.483,1.689,inexpert
57,1671117763914,15/12/2022 15:22:43,1671117766895,0,15/12/2022 15:22:46,109680,37,task-rbyw,repeat-u7ds#1->-repeat-l3h2#1,25974544,BLIND,7672976,NaN,complete,NaN,NaN,computer,Desktop or Laptop,Windows 10,Chrome 108.0.0.0,1920x1080,1920x1080,End of Day 1,SLS,90,B,NaN,NaN,NaN,Pass,End of Day 1,Pass,NaN,Pass,NaN,Pass,schedule_B,schedule_B,12,6,5,feedback_r,Zone7,timelimit_screen,1999.947,NaN,NaN,,NaN,0,1,0,NaN,NaN,1,NaN,NaN,trial_left,blueBox.png,greenBox.png,blueBox.png,al2_uncon.png,22,11,NaN,NaN,0.85,0.15,1,0,0,0,Stable,Stable,1.126,1.849,1.483,1.689,inexpert
58,1671117764066,15/12/2022 15:22:44,1671117767045,0,15/12/2022 15:22:47,109680,37,task-rbyw,repeat-u7ds#1->-repeat-l3h2#1,25974544,BLIND,7672976,NaN,complete,NaN,NaN,computer,Desktop or Laptop,Windows 10,Chrome 108.0.0.0,1920x1080,1920x1080,End of Day 1,SLS,90,B,NaN,NaN,NaN,Pass,End of Day 1,Pass,NaN,Pass,NaN,Pass,schedule_B,schedule_B,12,6,6,end,Zone1,timelimit_screen,149.968000000008,NaN,NaN,,NaN,0,1,0,NaN,NaN,1,NaN,NaN,trial_left,blueBox.png,greenBox.png,blueBox.png,al2_uncon.png,22,11,NaN,NaN,0.85,0.15,1,0,0,0,Stable,Stable,1.126,1.849,1.483,1.689,inexpert
59,1671117765278,15/12/2022 15:22:45,1671117768256,0,15/12/2022 15:22:48,109680,37,task-rbyw,repeat-u7ds#1->-repeat-l3h2#1,25974544,BLIND,7672976,NaN,complete,NaN,NaN,computer,Desktop or Laptop,Windows 10,Chrome 108.0.0.0,1920x1080,1920x1080,End of Day 1,SLS,90,B,NaN,NaN,NaN,Pass,End of Day 1,Pass,NaN,Pass,NaN,Pass,schedule_B,schedule_B,13,7,1,Screen 1,Zone1,continue_button,1200.30000001192,NaN,NaN,,NaN,0,1,0,NaN,NaN,NaN,NaN,NaN,trial_left,blueBox.png,greenBox.png,blueBox.png,al2_uncon.png,23,12,NaN,NaN,0.85,0.15,1,0,0,0,Stable,Stable,2.361,0.992,0.5,1.975,inexpert
60,1671117766260,15/12/2022 15:22:46,1671117769245,0,15/12/2022 15:22:49,109680,37,task-rbyw,repeat-u7ds#1->-repeat-l3h2#1,25974544,BLIND,7672976,NaN,complete,NaN,NaN,computer,Desktop or Laptop,Windows 10,Chrome 108.0.0.0,1920x1080,1920x1080,End of Day 1,SLS,90,B,NaN,NaN,NaN,Pass,End of Day 1,Pass,NaN,Pass,NaN,Pass,schedule_B,schedule_B,13,7,2,individual,Zone4,timelimit_screen,999.969000000012,NaN,NaN,,NaN,0,1,0,NaN,NaN,1,NaN,NaN,trial_left,blueBox.png,greenBox.png,blueBox.png,al2_uncon.png,23,12,NaN,NaN,0.85,0.15,1,0,0,0,Stable,Stable,2.361,0.992,0.5,1.975,inexpert
61,1671117767097,15/12/2022 15:22:47,1671117770072,0,15/12/2022 15:22:50,109680,37,task-rbyw,repeat-u7ds#1->-repeat-l3h2#1,25974544,BLIND,7672976,NaN,complete,NaN,NaN,computer,Desktop or Laptop,Windows 10,Chrome 108.0.0.0,1920x1080,1920x1080,End of Day 1,SLS,90,B,NaN,NaN,NaN,Pass,End of Day 1,Pass,NaN,Pass,NaN,Pass,schedule_B,schedule_B,13,7,3,offer,bluebox,response_button_image,820.799999982119,NaN,NaN,blueBox.png,1,1,0,0,NaN,NaN,NaN,NaN,NaN,trial_left,blueBox.png,greenBox.png,blueBox.png,al2_uncon.png,23,12,NaN,NaN,0.85,0.15,1,0,0,0,Stable,Stable,2.361,0.992,0.5,1.975,inexpert
62,1671117769090,15/12/2022 15:22:49,1671117772061,0,15/12/2022 15:22:52,109680,37,task-rbyw,repeat-u7ds#1->-repeat-l3h2#1,25974544,BLIND,7672976,NaN,complete,NaN,NaN,computer,Desktop or Laptop,Windows 10,Chrome 108.0.0.0,1920x1080,1920x1080,End of Day 1,SLS,90,B,NaN,NaN,NaN,Pass,End of Day 1,Pass,NaN,Pass,NaN,Pass,schedule_B,schedule_B,13,7,5,feedback_r,Zone7,timelimit_screen,1999.965,NaN,NaN,,NaN,0,1,0,NaN,NaN,1,NaN,NaN,trial_left,blueBox.png,greenBox.png,blueBox.png,al2_uncon.png,23,12,NaN,NaN,0.85,0.15,1,0,0,0,Stable,Stable,2.361,0.992,0.5,1.975,inexpert
63,1671117769227,15/12/2022 15:22:49,1671117772211,0,15/12/2022 15:22:52,109680,37,task-rbyw,repeat-u7ds#1->-repeat-l3h2#1,25974544,BLIND,7672976,NaN,complete,NaN,NaN,computer,Desktop or Laptop,Windows 10,Chrome 108.0.0.0,1920x1080,1920x1080,End of Day 1,SLS,90,B,NaN,NaN,NaN,Pass,End of Day 1,Pass,NaN,Pass,NaN,Pass,schedule_B,schedule_B,13,7,6,end,Zone1,timelimit_screen,149.953999999998,NaN,NaN,,NaN,0,1,0,NaN,NaN,1,NaN,NaN,trial_left,blueBox.png,greenBox.png,blueBox.png,al2_uncon.png,23,12,NaN,NaN,0.85,0.15,1,0,0,0,Stable,Stable,2.361,0.992,0.5,1.975,inexpert
64,1671117770591,15/12/2022 15:22:50,1671117773568,0,15/12/2022 15:22:53,109680,37,task-rbyw,repeat-u7ds#1->-repeat-l3h2#1,25974544,BLIND,7672976,NaN,complete,NaN,NaN,computer,Desktop or Laptop,Windows 10,Chrome 108.0.0.0,1920x1080,1920x1080,End of Day 1,SLS,90,B,NaN,NaN,NaN,Pass,End of Day 1,Pass,NaN,Pass,NaN,Pass,schedule_B,schedule_B,14,6,1,Screen 1,Zone1,continue_button,1346.60000002384,NaN,NaN,,NaN,0,1,0,NaN,NaN,NaN,NaN,NaN,trial_right,blueBox.png,blueBox.png,greenBox.png,al2_uncon.png,24,13,NaN,NaN,0.85,0.15,1,0,0,1,Stable,Stable,1.05,1.95,1.319,1.487,inexpert
65,1671117771616,15/12/2022 15:22:51,1671117774562,0,15/12/2022 15:22:54,109680,37,task-rbyw,repeat-u7ds#1->-repeat-l3h2#1,25974544,BLIND,7672976,NaN,complete,NaN,NaN,computer,Desktop or Laptop,Windows 10,Chrome 108.0.0.0,1920x1080,1920x1080,End of Day 1,SLS,90,B,NaN,NaN,NaN,Pass,End of Day 1,Pass,NaN,Pass,NaN,Pass,schedule_B,schedule_B,14,6,2,individual,Zone4,timelimit_screen,999.979000000007,NaN,NaN,,NaN,0,1,0,NaN,NaN,1,NaN,NaN,trial_right,blueBox.png,blueBox.png,greenBox.png,al2_uncon.png,24,13,NaN,NaN,0.85,0.15,1,0,0,1,Stable,Stable,1.05,1.95,1.319,1.487,inexpert
66,1671117772405,15/12/2022 15:22:52,1671117775392,0,15/12/2022 15:22:55,109680,37,task-rbyw,repeat-u7ds#1->-repeat-l3h2#1,25974544,BLIND,7672976,NaN,complete,NaN,NaN,computer,Desktop or Laptop,Windows 10,Chrome 108.0.0.0,1920x1080,1920x1080,End of Day 1,SLS,90,B,NaN,NaN,NaN,Pass,End of Day 1,Pass,NaN,Pass,NaN,Pass,schedule_B,schedule_B,14,6,3,offer,Zone2,response_button_image,824.799999982119,NaN,NaN,blueBox.png,1,1,0,0,NaN,NaN,NaN,NaN,NaN,trial_right,blueBox.png,blueBox.png,greenBox.png,al2_uncon.png,24,13,NaN,NaN,0.85,0.15,1,0,0,1,Stable,Stable,1.05,1.95,1.319,1.487,inexpert
67,1671117774402,15/12/2022 15:22:54,1671117777378,0,15/12/2022 15:22:57,109680,37,task-rbyw,repeat-u7ds#1->-repeat-l3h2#1,25974544,BLIND,7672976,NaN,complete,NaN,NaN,computer,Desktop or Laptop,Windows 10,Chrome 108.0.0.0,1920x1080,1920x1080,End of Day 1,SLS,90,B,NaN,NaN,NaN,Pass,End of Day 1,Pass,NaN,Pass,NaN,Pass,schedule_B,schedule_B,14,6,4,feedback_l,Zone7,timelimit_screen,1999.96299999999,NaN,NaN,,NaN,0,1,0,NaN,NaN,1,NaN,NaN,trial_right,blueBox.png,blueBox.png,greenBox.png,al2_uncon.png,24,13,NaN,NaN,0.85,0.15,1,0,0,1,Stable,Stable,1.05,1.95,1.319,1.487,inexpert
68,1671117774599,15/12/2022 15:22:54,1671117777528,0,15/12/2022 15:22:57,109680,37,task-rbyw,repeat-u7ds#1->-repeat-l3h2#1,25974544,BLIND,7672976,NaN,complete,NaN,NaN,computer,Desktop or Laptop,Windows 10,Chrome 108.0.0.0,1920x1080,1920x1080,End of Day 1,SLS,90,B,NaN,NaN,NaN,Pass,End of Day 1,Pass,NaN,Pass,NaN,Pass,schedule_B,schedule_B,14,6,6,end,Zone1,timelimit_screen,150.058000000005,NaN,NaN,,NaN,0,1,0,NaN,NaN,1,NaN,NaN,trial_right,blueBox.png,blueBox.png,greenBox.png,al2_uncon.png,24,13,NaN,NaN,0.85,0.15,1,0,0,1,Stable,Stable,1.05,1.95,1.319,1.487,inexpert
69,1671117775453,15/12/2022 15:22:55,1671117778417,0,15/12/2022 15:22:58,109680,37,task-rbyw,repeat-u7ds#1->-repeat-l3h2#1,25974544,BLIND,7672976,NaN,complete,NaN,NaN,computer,Desktop or Laptop,Windows 10,Chrome 108.0.0.0,1920x1080,1920x1080,End of Day 1,SLS,90,B,NaN,NaN,NaN,Pass,End of Day 1,Pass,NaN,Pass,NaN,Pass,schedule_B,schedule_B,15,7,1,Screen 1,Zone1,continue_button,877.59999999404,NaN,NaN,,NaN,0,1,0,NaN,NaN,NaN,NaN,NaN,trial_right,blueBox.png,blueBox.png,greenBox.png,al2_uncon.png,25,14,NaN,NaN,0.85,0.15,1,0,0,1,Stable,Stable,3.395,0.84,0.803,1.252,inexpert
70,1671117776433,15/12/2022 15:22:56,1671117779412,0,15/12/2022 15:22:59,109680,37,task-rbyw,repeat-u7ds#1->-repeat-l3h2#1,25974544,BLIND,7672976,NaN,complete,NaN,NaN,computer,Desktop or Laptop,Windows 10,Chrome 108.0.0.0,1920x1080,1920x1080,End of Day 1,SLS,90,B,NaN,NaN,NaN,Pass,End of Day 1,Pass,NaN,Pass,NaN,Pass,schedule_B,schedule_B,15,7,2,individual,Zone4,timelimit_screen,999.983999999997,NaN,NaN,,NaN,0,1,0,NaN,NaN,1,NaN,NaN,trial_right,blueBox.png,blueBox.png,greenBox.png,al2_uncon.png,25,14,NaN,NaN,0.85,0.15,1,0,0,1,Stable,Stable,3.395,0.84,0.803,1.252,inexpert
71,1671117777972,15/12/2022 15:22:57,1671117780945,0,15/12/2022 15:23:00,109680,37,task-rbyw,repeat-u7ds#1->-repeat-l3h2#1,25974544,BLIND,7672976,NaN,complete,NaN,NaN,computer,Desktop or Laptop,Windows 10,Chrome 108.0.0.0,1920x1080,1920x1080,End of Day 1,SLS,90,B,NaN,NaN,NaN,Pass,End of Day 1,Pass,NaN,Pass,NaN,Pass,schedule_B,schedule_B,15,7,3,offer,Zone2,response_button_image,1526.60000002384,NaN,NaN,blueBox.png,1,1,0,0,NaN,NaN,NaN,NaN,NaN,trial_right,blueBox.png,blueBox.png,greenBox.png,al2_uncon.png,25,14,NaN,NaN,0.85,0.15,1,0,0,1,Stable,Stable,3.395,0.84,0.803,1.252,inexpert
72,1671117779959,15/12/2022 15:22:59,1671117782945,0,15/12/2022 15:23:02,109680,37,task-rbyw,repeat-u7ds#1->-repeat-l3h2#1,25974544,BLIND,7672976,NaN,complete,NaN,NaN,computer,Desktop or Laptop,Windows 10,Chrome 108.0.0.0,1920x1080,1920x1080,End of Day 1,SLS,90,B,NaN,NaN,NaN,Pass,End of Day 1,Pass,NaN,Pass,NaN,Pass,schedule_B,schedule_B,15,7,4,feedback_l,Zone7,timelimit_screen,1999.984,NaN,NaN,,NaN,0,1,0,NaN,NaN,1,NaN,NaN,trial_right,blueBox.png,blueBox.png,greenBox.png,al2_uncon.png,25,14,NaN,NaN,0.85,0.15,1,0,0,1,Stable,Stable,3.395,0.84,0.803,1.252,inexpert
73,1671117780168,15/12/2022 15:23:00,1671117783095,0,15/12/2022 15:23:03,109680,37,task-rbyw,repeat-u7ds#1->-repeat-l3h2#1,25974544,BLIND,7672976,NaN,complete,NaN,NaN,computer,Desktop or Laptop,Windows 10,Chrome 108.0.0.0,1920x1080,1920x1080,End of Day 1,SLS,90,B,NaN,NaN,NaN,Pass,End of Day 1,Pass,NaN,Pass,NaN,Pass,schedule_B,schedule_B,15,7,6,end,Zone1,timelimit_screen,149.949000000008,NaN,NaN,,NaN,0,1,0,NaN,NaN,1,NaN,NaN,trial_right,blueBox.png,blueBox.png,greenBox.png,al2_uncon.png,25,14,NaN,NaN,0.85,0.15,1,0,0,1,Stable,Stable,3.395,0.84,0.803,1.252,inexpert
74,1671117781009,15/12/2022 15:23:01,1671117783993,0,15/12/2022 15:23:03,109680,37,task-rbyw,repeat-u7ds#1->-repeat-l3h2#1,25974544,BLIND,7672976,NaN,complete,NaN,NaN,computer,Desktop or Laptop,Windows 10,Chrome 108.0.0.0,1920x1080,1920x1080,End of Day 1,SLS,90,B,NaN,NaN,NaN,Pass,End of Day 1,Pass,NaN,Pass,NaN,Pass,schedule_B,schedule_B,16,8,1,Screen 1,Zone1,continue_button,887.300000011921,NaN,NaN,,NaN,0,1,0,NaN,NaN,NaN,NaN,NaN,trial_left,blueBox.png,blueBox.png,greenBox.png,al2_uncon.png,26,15,NaN,NaN,0.85,0.15,1,1,1,1,Stable,Stable,2.689,1.067,1.697,2.731,inexpert
75,1671117781992,15/12/2022 15:23:01,1671117784978,0,15/12/2022 15:23:04,109680,37,task-rbyw,repeat-u7ds#1->-repeat-l3h2#1,25974544,BLIND,7672976,NaN,complete,NaN,NaN,computer,Desktop or Laptop,Windows 10,Chrome 108.0.0.0,1920x1080,1920x1080,End of Day 1,SLS,90,B,NaN,NaN,NaN,Pass,End of Day 1,Pass,NaN,Pass,NaN,Pass,schedule_B,schedule_B,16,8,2,individual,Zone4,timelimit_screen,999.979999999996,NaN,NaN,,NaN,0,1,0,NaN,NaN,1,NaN,NaN,trial_left,blueBox.png,blueBox.png,greenBox.png,al2_uncon.png,26,15,NaN,NaN,0.85,0.15,1,1,1,1,Stable,Stable,2.689,1.067,1.697,2.731,inexpert
76,1671117782820,15/12/2022 15:23:02,1671117785802,0,15/12/2022 15:23:05,109680,37,task-rbyw,repeat-u7ds#1->-repeat-l3h2#1,25974544,BLIND,7672976,NaN,complete,NaN,NaN,computer,Desktop or Laptop,Windows 10,Chrome 108.0.0.0,1920x1080,1920x1080,End of Day 1,SLS,90,B,NaN,NaN,NaN,Pass,End of Day 1,Pass,NaN,Pass,NaN,Pass,schedule_B,schedule_B,16,8,3,offer,bluebox,response_button_image,817.200000017881,NaN,NaN,greenBox.png,1,0,1,0,NaN,NaN,NaN,NaN,NaN,trial_left,blueBox.png,blueBox.png,greenBox.png,al2_uncon.png,26,15,NaN,NaN,0.85,0.15,1,1,1,1,Stable,Stable,2.689,1.067,1.697,2.731,inexpert
77,1671117784815,15/12/2022 15:23:04,1671117787795,0,15/12/2022 15:23:07,109680,37,task-rbyw,repeat-u7ds#1->-repeat-l3h2#1,25974544,BLIND,7672976,NaN,complete,NaN,NaN,computer,Desktop or Laptop,Windows 10,Chrome 108.0.0.0,1920x1080,1920x1080,End of Day 1,SLS,90,B,NaN,NaN,NaN,Pass,End of Day 1,Pass,NaN,Pass,NaN,Pass,schedule_B,schedule_B,16,8,5,feedback_r,Zone7,timelimit_screen,1999.954,NaN,NaN,,NaN,0,1,0,NaN,NaN,1,NaN,NaN,trial_left,blueBox.png,blueBox.png,greenBox.png,al2_uncon.png,26,15,NaN,NaN,0.85,0.15,1,1,1,1,Stable,Stable,2.689,1.067,1.697,2.731,inexpert
78,1671117784988,15/12/2022 15:23:04,1671117787945,0,15/12/2022 15:23:07,109680,37,task-rbyw,repeat-u7ds#1->-repeat-l3h2#1,25974544,BLIND,7672976,NaN,complete,NaN,NaN,computer,Desktop or Laptop,Windows 10,Chrome 108.0.0.0,1920x1080,1920x1080,End of Day 1,SLS,90,B,NaN,NaN,NaN,Pass,End of Day 1,Pass,NaN,Pass,NaN,Pass,schedule_B,schedule_B,16,8,6,end,Zone1,timelimit_screen,149.987000000008,NaN,NaN,,NaN,0,1,0,NaN,NaN,1,NaN,NaN,trial_left,blueBox.png,blueBox.png,greenBox.png,al2_uncon.png,26,15,NaN,NaN,0.85,0.15,1,1,1,1,Stable,Stable,2.689,1.067,1.697,2.731,inexpert
79,1671117785636,15/12/2022 15:23:05,1671117788626,0,15/12/2022 15:23:08,109680,37,task-rbyw,repeat-u7ds#1->-repeat-l3h2#1,25974544,BLIND,7672976,NaN,complete,NaN,NaN,computer,Desktop or Laptop,Windows 10,Chrome 108.0.0.0,1920x1080,1920x1080,End of Day 1,SLS,90,B,NaN,NaN,NaN,Pass,End of Day 1,Pass,NaN,Pass,NaN,Pass,schedule_B,schedule_B,17,9,1,Screen 1,Zone1,continue_button,671.300000011921,NaN,NaN,,NaN,0,1,0,NaN,NaN,NaN,NaN,NaN,trial_left,greenBox.png,greenBox.png,blueBox.png,al2_uncon.png,27,16,NaN,NaN,0.15,0.15,0,1,0,0,Stable,Stable,1.378,0.689,0.878,2.076,inexpert
80,1671117786623,15/12/2022 15:23:06,1671117789611,0,15/12/2022 15:23:09,109680,37,task-rbyw,repeat-u7ds#1->-repeat-l3h2#1,25974544,BLIND,7672976,NaN,complete,NaN,NaN,computer,Desktop or Laptop,Windows 10,Chrome 108.0.0.0,1920x1080,1920x1080,End of Day 1,SLS,90,B,NaN,NaN,NaN,Pass,End of Day 1,Pass,NaN,Pass,NaN,Pass,schedule_B,schedule_B,17,9,2,individual,Zone4,timelimit_screen,999.967000000004,NaN,NaN,,NaN,0,1,0,NaN,NaN,1,NaN,NaN,trial_left,greenBox.png,greenBox.png,blueBox.png,al2_uncon.png,27,16,NaN,NaN,0.15,0.15,0,1,0,0,Stable,Stable,1.378,0.689,0.878,2.076,inexpert
81,1671117787348,15/12/2022 15:23:07,1671117790322,0,15/12/2022 15:23:10,109680,37,task-rbyw,repeat-u7ds#1->-repeat-l3h2#1,25974544,BLIND,7672976,NaN,complete,NaN,NaN,computer,Desktop or Laptop,Windows 10,Chrome 108.0.0.0,1920x1080,1920x1080,End of Day 1,SLS,90,B,NaN,NaN,NaN,Pass,End of Day 1,Pass,NaN,Pass,NaN,Pass,schedule_B,schedule_B,17,9,3,offer,Zone2,response_button_image,704.799999982119,NaN,NaN,greenBox.png,1,1,0,0,NaN,NaN,NaN,NaN,NaN,trial_left,greenBox.png,greenBox.png,blueBox.png,al2_uncon.png,27,16,NaN,NaN,0.15,0.15,0,1,0,0,Stable,Stable,1.378,0.689,0.878,2.076,inexpert
82,1671117789328,15/12/2022 15:23:09,1671117792311,0,15/12/2022 15:23:12,109680,37,task-rbyw,repeat-u7ds#1->-repeat-l3h2#1,25974544,BLIND,7672976,NaN,complete,NaN,NaN,computer,Desktop or Laptop,Windows 10,Chrome 108.0.0.0,1920x1080,1920x1080,End of Day 1,SLS,90,B,NaN,NaN,NaN,Pass,End of Day 1,Pass,NaN,Pass,NaN,Pass,schedule_B,schedule_B,17,9,4,feedback_l,Zone7,timelimit_screen,1999.969,NaN,NaN,,NaN,0,1,0,NaN,NaN,1,NaN,NaN,trial_left,greenBox.png,greenBox.png,blueBox.png,al2_uncon.png,27,16,NaN,NaN,0.15,0.15,0,1,0,0,Stable,Stable,1.378,0.689,0.878,2.076,inexpert
83,1671117789479,15/12/2022 15:23:09,1671117792461,0,15/12/2022 15:23:12,109680,37,task-rbyw,repeat-u7ds#1->-repeat-l3h2#1,25974544,BLIND,7672976,NaN,complete,NaN,NaN,computer,Desktop or Laptop,Windows 10,Chrome 108.0.0.0,1920x1080,1920x1080,End of Day 1,SLS,90,B,NaN,NaN,NaN,Pass,End of Day 1,Pass,NaN,Pass,NaN,Pass,schedule_B,schedule_B,17,9,6,end,Zone1,timelimit_screen,150.012000000002,NaN,NaN,,NaN,0,1,0,NaN,NaN,1,NaN,NaN,trial_left,greenBox.png,greenBox.png,blueBox.png,al2_uncon.png,27,16,NaN,NaN,0.15,0.15,0,1,0,0,Stable,Stable,1.378,0.689,0.878,2.076,inexpert
84,1671117790197,15/12/2022 15:23:10,1671117793178,0,15/12/2022 15:23:13,109680,37,task-rbyw,repeat-u7ds#1->-repeat-l3h2#1,25974544,BLIND,7672976,NaN,complete,NaN,NaN,computer,Desktop or Laptop,Windows 10,Chrome 108.0.0.0,1920x1080,1920x1080,End of Day 1,SLS,90,B,NaN,NaN,NaN,Pass,End of Day 1,Pass,NaN,Pass,NaN,Pass,schedule_B,schedule_B,18,8,1,Screen 1,Zone1,continue_button,706.199999988079,NaN,NaN,,NaN,0,1,0,NaN,NaN,NaN,NaN,NaN,trial_right,greenBox.png,blueBox.png,greenBox.png,al2_uncon.png,28,17,NaN,NaN,0.15,0.15,0,1,0,1,Stable,Stable,2.714,0.739,1.975,1.134,inexpert
85,1671117791190,15/12/2022 15:23:11,1671117794178,0,15/12/2022 15:23:14,109680,37,task-rbyw,repeat-u7ds#1->-repeat-l3h2#1,25974544,BLIND,7672976,NaN,complete,NaN,NaN,computer,Desktop or Laptop,Windows 10,Chrome 108.0.0.0,1920x1080,1920x1080,End of Day 1,SLS,90,B,NaN,NaN,NaN,Pass,End of Day 1,Pass,NaN,Pass,NaN,Pass,schedule_B,schedule_B,18,8,2,individual,Zone4,timelimit_screen,999.981,NaN,NaN,,NaN,0,1,0,NaN,NaN,1,NaN,NaN,trial_right,greenBox.png,blueBox.png,greenBox.png,al2_uncon.png,28,17,NaN,NaN,0.15,0.15,0,1,0,1,Stable,Stable,2.714,0.739,1.975,1.134,inexpert
86,1671117792014,15/12/2022 15:23:12,1671117794995,0,15/12/2022 15:23:14,109680,37,task-rbyw,repeat-u7ds#1->-repeat-l3h2#1,25974544,BLIND,7672976,NaN,complete,NaN,NaN,computer,Desktop or Laptop,Windows 10,Chrome 108.0.0.0,1920x1080,1920x1080,End of Day 1,SLS,90,B,NaN,NaN,NaN,Pass,End of Day 1,Pass,NaN,Pass,NaN,Pass,schedule_B,schedule_B,18,8,3,offer,Zone3,response_button_image,810.5,NaN,NaN,greenBox.png,1,1,0,0,NaN,NaN,NaN,NaN,NaN,trial_right,greenBox.png,blueBox.png,greenBox.png,al2_uncon.png,28,17,NaN,NaN,0.15,0.15,0,1,0,1,Stable,Stable,2.714,0.739,1.975,1.134,inexpert
87,1671117794009,15/12/2022 15:23:14,1671117796994,0,15/12/2022 15:23:16,109680,37,task-rbyw,repeat-u7ds#1->-repeat-l3h2#1,25974544,BLIND,7672976,NaN,complete,NaN,NaN,computer,Desktop or Laptop,Windows 10,Chrome 108.0.0.0,1920x1080,1920x1080,End of Day 1,SLS,90,B,NaN,NaN,NaN,Pass,End of Day 1,Pass,NaN,Pass,NaN,Pass,schedule_B,schedule_B,18,8,5,feedback_r,Zone7,timelimit_screen,2000.012,NaN,NaN,,NaN,0,1,0,NaN,NaN,1,NaN,NaN,trial_right,greenBox.png,blueBox.png,greenBox.png,al2_uncon.png,28,17,NaN,NaN,0.15,0.15,0,1,0,1,Stable,Stable,2.714,0.739,1.975,1.134,inexpert
88,1671117794165,15/12/2022 15:23:14,1671117797144,0,15/12/2022 15:23:17,109680,37,task-rbyw,repeat-u7ds#1->-repeat-l3h2#1,25974544,BLIND,7672976,NaN,complete,NaN,NaN,computer,Desktop or Laptop,Windows 10,Chrome 108.0.0.0,1920x1080,1920x1080,End of Day 1,SLS,90,B,NaN,NaN,NaN,Pass,End of Day 1,Pass,NaN,Pass,NaN,Pass,schedule_B,schedule_B,18,8,6,end,Zone1,timelimit_screen,149.937999999995,NaN,NaN,,NaN,0,1,0,NaN,NaN,1,NaN,NaN,trial_right,greenBox.png,blueBox.png,greenBox.png,al2_uncon.png,28,17,NaN,NaN,0.15,0.15,0,1,0,1,Stable,Stable,2.714,0.739,1.975,1.134,inexpert
89,1671117795231,15/12/2022 15:23:15,1671117798203,0,15/12/2022 15:23:18,109680,37,task-rbyw,repeat-u7ds#1->-repeat-l3h2#1,25974544,BLIND,7672976,NaN,complete,NaN,NaN,computer,Desktop or Laptop,Windows 10,Chrome 108.0.0.0,1920x1080,1920x1080,End of Day 1,SLS,90,B,NaN,NaN,NaN,Pass,End of Day 1,Pass,NaN,Pass,NaN,Pass,schedule_B,schedule_B,19,9,1,Screen 1,Zone1,continue_button,1047.80000001192,NaN,NaN,,NaN,0,1,0,NaN,NaN,NaN,NaN,NaN,trial_right,greenBox.png,greenBox.png,blueBox.png,al2_uncon.png,29,18,NaN,NaN,0.15,0.15,0,0,1,0,Stable,Stable,3.874,0.676,1.496,1.639,inexpert
90,1671117796207,15/12/2022 15:23:16,1671117799194,0,15/12/2022 15:23:19,109680,37,task-rbyw,repeat-u7ds#1->-repeat-l3h2#1,25974544,BLIND,7672976,NaN,complete,NaN,NaN,computer,Desktop or Laptop,Windows 10,Chrome 108.0.0.0,1920x1080,1920x1080,End of Day 1,SLS,90,B,NaN,NaN,NaN,Pass,End of Day 1,Pass,NaN,Pass,NaN,Pass,schedule_B,schedule_B,19,9,2,individual,Zone4,timelimit_screen,999.931000000011,NaN,NaN,,NaN,0,1,0,NaN,NaN,1,NaN,NaN,trial_right,greenBox.png,greenBox.png,blueBox.png,al2_uncon.png,29,18,NaN,NaN,0.15,0.15,0,0,1,0,Stable,Stable,3.874,0.676,1.496,1.639,inexpert
91,1671117797112,15/12/2022 15:23:17,1671117800091,0,15/12/2022 15:23:20,109680,37,task-rbyw,repeat-u7ds#1->-repeat-l3h2#1,25974544,BLIND,7672976,NaN,complete,NaN,NaN,computer,Desktop or Laptop,Windows 10,Chrome 108.0.0.0,1920x1080,1920x1080,End of Day 1,SLS,90,B,NaN,NaN,NaN,Pass,End of Day 1,Pass,NaN,Pass,NaN,Pass,schedule_B,schedule_B,19,9,3,offer,Zone3,response_button_image,890.90000000596,NaN,NaN,blueBox.png,1,0,1,0,NaN,NaN,NaN,NaN,NaN,trial_right,greenBox.png,greenBox.png,blueBox.png,al2_uncon.png,29,18,NaN,NaN,0.15,0.15,0,0,1,0,Stable,Stable,3.874,0.676,1.496,1.639,inexpert
92,1671117799091,15/12/2022 15:23:19,1671117802078,0,15/12/2022 15:23:22,109680,37,task-rbyw,repeat-u7ds#1->-repeat-l3h2#1,25974544,BLIND,7672976,NaN,complete,NaN,NaN,computer,Desktop or Laptop,Windows 10,Chrome 108.0.0.0,1920x1080,1920x1080,End of Day 1,SLS,90,B,NaN,NaN,NaN,Pass,End of Day 1,Pass,NaN,Pass,NaN,Pass,schedule_B,schedule_B,19,9,5,feedback_r,Zone7,timelimit_screen,1999.96000000001,NaN,NaN,,NaN,0,1,0,NaN,NaN,1,NaN,NaN,trial_right,greenBox.png,greenBox.png,blueBox.png,al2_uncon.png,29,18,NaN,NaN,0.15,0.15,0,0,1,0,Stable,Stable,3.874,0.676,1.496,1.639,inexpert
93,1671117799260,15/12/2022 15:23:19,1671117802228,0,15/12/2022 15:23:22,109680,37,task-rbyw,repeat-u7ds#1->-repeat-l3h2#1,25974544,BLIND,7672976,NaN,complete,NaN,NaN,computer,Desktop or Laptop,Windows 10,Chrome 108.0.0.0,1920x1080,1920x1080,End of Day 1,SLS,90,B,NaN,NaN,NaN,Pass,End of Day 1,Pass,NaN,Pass,NaN,Pass,schedule_B,schedule_B,19,9,6,end,Zone1,timelimit_screen,150.062999999995,NaN,NaN,,NaN,0,1,0,NaN,NaN,1,NaN,NaN,trial_right,greenBox.png,greenBox.png,blueBox.png,al2_uncon.png,29,18,NaN,NaN,0.15,0.15,0,0,1,0,Stable,Stable,3.874,0.676,1.496,1.639,inexpert
94,1671117800242,15/12/2022 15:23:20,1671117803227,0,15/12/2022 15:23:23,109680,37,task-rbyw,repeat-u7ds#1->-repeat-l3h2#1,25974544,BLIND,7672976,NaN,complete,NaN,NaN,computer,Desktop or Laptop,Windows 10,Chrome 108.0.0.0,1920x1080,1920x1080,End of Day 1,SLS,90,B,NaN,NaN,NaN,Pass,End of Day 1,Pass,NaN,Pass,NaN,Pass,schedule_B,schedule_B,20,10,1,Screen 1,Zone1,continue_button,986.40000000596,NaN,NaN,,NaN,0,1,0,NaN,NaN,NaN,NaN,NaN,trial_left,greenBox.png,greenBox.png,blueBox.png,al2_uncon.png,30,19,NaN,NaN,0.15,0.15,0,1,0,0,Stable,Stable,1.252,1.193,0.853,2.681,inexpert
95,1671117801224,15/12/2022 15:23:21,1671117804211,0,15/12/2022 15:23:24,109680,37,task-rbyw,repeat-u7ds#1->-repeat-l3h2#1,25974544,BLIND,7672976,NaN,complete,NaN,NaN,computer,Desktop or Laptop,Windows 10,Chrome 108.0.0.0,1920x1080,1920x1080,End of Day 1,SLS,90,B,NaN,NaN,NaN,Pass,End of Day 1,Pass,NaN,Pass,NaN,Pass,schedule_B,schedule_B,20,10,2,individual,Zone4,timelimit_screen,999.963000000003,NaN,NaN,,NaN,0,1,0,NaN,NaN,1,NaN,NaN,trial_left,greenBox.png,greenBox.png,blueBox.png,al2_uncon.png,30,19,NaN,NaN,0.15,0.15,0,1,0,0,Stable,Stable,1.252,1.193,0.853,2.681,inexpert
96,1671117804937,15/12/2022 15:23:24,1671117807900,0,15/12/2022 15:23:27,109680,37,task-rbyw,repeat-u7ds#1->-repeat-l3h2#1,25974544,BLIND,7672976,NaN,complete,NaN,NaN,computer,Desktop or Laptop,Windows 10,Chrome 108.0.0.0,1920x1080,1920x1080,End of Day 1,SLS,90,B,NaN,NaN,NaN,Pass,End of Day 1,Pass,NaN,Pass,NaN,Pass,schedule_B,schedule_B,20,10,3,offer,Zone2,response_button_image,3683.29999998212,NaN,NaN,greenBox.png,1,1,0,0,NaN,NaN,NaN,NaN,NaN,trial_left,greenBox.png,greenBox.png,blueBox.png,al2_uncon.png,30,19,NaN,NaN,0.15,0.15,0,1,0,0,Stable,Stable,1.252,1.193,0.853,2.681,inexpert
97,1671117806989,15/12/2022 15:23:26,1671117809894,0,15/12/2022 15:23:29,109680,37,task-rbyw,repeat-u7ds#1->-repeat-l3h2#1,25974544,BLIND,7672976,NaN,complete,NaN,NaN,computer,Desktop or Laptop,Windows 10,Chrome 108.0.0.0,1920x1080,1920x1080,End of Day 1,SLS,90,B,NaN,NaN,NaN,Pass,End of Day 1,Pass,NaN,Pass,NaN,Pass,schedule_B,schedule_B,20,10,4,feedback_l,Zone7,timelimit_screen,1999.96400000001,NaN,NaN,,NaN,0,1,0,NaN,NaN,1,NaN,NaN,trial_left,greenBox.png,greenBox.png,blueBox.png,al2_uncon.png,30,19,NaN,NaN,0.15,0.15,0,1,0,0,Stable,Stable,1.252,1.193,0.853,2.681,inexpert
98,1671117807415,15/12/2022 15:23:27,1671117810044,0,15/12/2022 15:23:30,109680,37,task-rbyw,repeat-u7ds#1->-repeat-l3h2#1,25974544,BLIND,7672976,NaN,complete,NaN,NaN,computer,Desktop or Laptop,Windows 10,Chrome 108.0.0.0,1920x1080,1920x1080,End of Day 1,SLS,90,B,NaN,NaN,NaN,Pass,End of Day 1,Pass,NaN,Pass,NaN,Pass,schedule_B,schedule_B,20,10,6,end,Zone1,timelimit_screen,149.949999999997,NaN,NaN,,NaN,0,1,0,NaN,NaN,1,NaN,NaN,trial_left,greenBox.png,greenBox.png,blueBox.png,al2_uncon.png,30,19,NaN,NaN,0.15,0.15,0,1,0,0,Stable,Stable,1.252,1.193,0.853,2.681,inexpert
99,1671117808294,15/12/2022 15:23:28,1671117811284,0,15/12/2022 15:23:31,109680,37,task-rbyw,repeat-u7ds#1->-repeat-l3h2#1,25974544,BLIND,7672976,NaN,complete,NaN,NaN,computer,Desktop or Laptop,Windows 10,Chrome 108.0.0.0,1920x1080,1920x1080,End of Day 1,SLS,90,B,NaN,NaN,NaN,Pass,End of Day 1,Pass,NaN,Pass,NaN,Pass,schedule_B,schedule_B,21,10,1,Screen 1,Zone1,continue_button,1228.40000000596,NaN,NaN,,NaN,0,1,0,NaN,NaN,NaN,NaN,NaN,trial_right,greenBox.png,greenBox.png,blueBox.png,al2_uncon.png,41,20,NaN,NaN,0.15,0.15,0,0,1,0,Stable,Stable,3.521,1.723,1.37,1.655,inexpert
100,1671117809291,15/12/2022 15:23:29,1671117812278,0,15/12/2022 15:23:32,109680,37,task-rbyw,repeat-u7ds#1->-repeat-l3h2#1,25974544,BLIND,7672976,NaN,complete,NaN,NaN,computer,Desktop or Laptop,Windows 10,Chrome 108.0.0.0,1920x1080,1920x1080,End of Day 1,SLS,90,B,NaN,NaN,NaN,Pass,End of Day 1,Pass,NaN,Pass,NaN,Pass,schedule_B,schedule_B,21,10,2,individual,Zone4,timelimit_screen,999.997999999992,NaN,NaN,,NaN,0,1,0,NaN,NaN,1,NaN,NaN,trial_right,greenBox.png,greenBox.png,blueBox.png,al2_uncon.png,41,20,NaN,NaN,0.15,0.15,0,0,1,0,Stable,Stable,3.521,1.723,1.37,1.655,inexpert
101,1671117810076,15/12/2022 15:23:30,1671117813068,0,15/12/2022 15:23:33,109680,37,task-rbyw,repeat-u7ds#1->-repeat-l3h2#1,25974544,BLIND,7672976,NaN,complete,NaN,NaN,computer,Desktop or Laptop,Windows 10,Chrome 108.0.0.0,1920x1080,1920x1080,End of Day 1,SLS,90,B,NaN,NaN,NaN,Pass,End of Day 1,Pass,NaN,Pass,NaN,Pass,schedule_B,schedule_B,21,10,3,offer,Zone3,response_button_image,784.199999988079,NaN,NaN,blueBox.png,1,0,1,0,NaN,NaN,NaN,NaN,NaN,trial_right,greenBox.png,greenBox.png,blueBox.png,al2_uncon.png,41,20,NaN,NaN,0.15,0.15,0,0,1,0,Stable,Stable,3.521,1.723,1.37,1.655,inexpert
102,1671117812084,15/12/2022 15:23:32,1671117815061,0,15/12/2022 15:23:35,109680,37,task-rbyw,repeat-u7ds#1->-repeat-l3h2#1,25974544,BLIND,7672976,NaN,complete,NaN,NaN,computer,Desktop or Laptop,Windows 10,Chrome 108.0.0.0,1920x1080,1920x1080,End of Day 1,SLS,90,B,NaN,NaN,NaN,Pass,End of Day 1,Pass,NaN,Pass,NaN,Pass,schedule_B,schedule_B,21,10,5,feedback_r,Zone7,timelimit_screen,1999.962,NaN,NaN,,NaN,0,1,0,NaN,NaN,1,NaN,NaN,trial_right,greenBox.png,greenBox.png,blueBox.png,al2_uncon.png,41,20,NaN,NaN,0.15,0.15,0,0,1,0,Stable,Stable,3.521,1.723,1.37,1.655,inexpert
103,1671117812228,15/12/2022 15:23:32,1671117815211,0,15/12/2022 15:23:35,109680,37,task-rbyw,repeat-u7ds#1->-repeat-l3h2#1,25974544,BLIND,7672976,NaN,complete,NaN,NaN,computer,Desktop or Laptop,Windows 10,Chrome 108.0.0.0,1920x1080,1920x1080,End of Day 1,SLS,90,B,NaN,NaN,NaN,Pass,End of Day 1,Pass,NaN,Pass,NaN,Pass,schedule_B,schedule_B,21,10,6,end,Zone1,timelimit_screen,149.956999999995,NaN,NaN,,NaN,0,1,0,NaN,NaN,1,NaN,NaN,trial_right,greenBox.png,greenBox.png,blueBox.png,al2_uncon.png,41,20,NaN,NaN,0.15,0.15,0,0,1,0,Stable,Stable,3.521,1.723,1.37,1.655,inexpert
104,1671117813150,15/12/2022 15:23:33,1671117816141,0,15/12/2022 15:23:36,109680,37,task-rbyw,repeat-u7ds#1->-repeat-l3h2#1,25974544,BLIND,7672976,NaN,complete,NaN,NaN,computer,Desktop or Laptop,Windows 10,Chrome 108.0.0.0,1920x1080,1920x1080,End of Day 1,SLS,90,B,NaN,NaN,NaN,Pass,End of Day 1,Pass,NaN,Pass,NaN,Pass,schedule_B,schedule_B,22,11,1,Screen 1,Zone1,continue_button,920.299999982119,NaN,NaN,,NaN,0,1,0,NaN,NaN,NaN,NaN,NaN,trial_left,blueBox.png,blueBox.png,greenBox.png,al2_uncon.png,42,21,NaN,NaN,0.85,0.15,1,1,1,1,Stable,Stable,2.336,0.651,1.685,2.882,inexpert
105,1671117814136,15/12/2022 15:23:34,1671117817127,0,15/12/2022 15:23:37,109680,37,task-rbyw,repeat-u7ds#1->-repeat-l3h2#1,25974544,BLIND,7672976,NaN,complete,NaN,NaN,computer,Desktop or Laptop,Windows 10,Chrome 108.0.0.0,1920x1080,1920x1080,End of Day 1,SLS,90,B,NaN,NaN,NaN,Pass,End of Day 1,Pass,NaN,Pass,NaN,Pass,schedule_B,schedule_B,22,11,2,individual,Zone4,timelimit_screen,999.972999999998,NaN,NaN,,NaN,0,1,0,NaN,NaN,1,NaN,NaN,trial_left,blueBox.png,blueBox.png,greenBox.png,al2_uncon.png,42,21,NaN,NaN,0.85,0.15,1,1,1,1,Stable,Stable,2.336,0.651,1.685,2.882,inexpert
106,1671117814920,15/12/2022 15:23:34,1671117817909,0,15/12/2022 15:23:37,109680,37,task-rbyw,repeat-u7ds#1->-repeat-l3h2#1,25974544,BLIND,7672976,NaN,complete,NaN,NaN,computer,Desktop or Laptop,Windows 10,Chrome 108.0.0.0,1920x1080,1920x1080,End of Day 1,SLS,90,B,NaN,NaN,NaN,Pass,End of Day 1,Pass,NaN,Pass,NaN,Pass,schedule_B,schedule_B,22,11,3,offer,Zone2,response_button_image,775.59999999404,NaN,NaN,blueBox.png,1,1,0,0,NaN,NaN,NaN,NaN,NaN,trial_left,blueBox.png,blueBox.png,greenBox.png,al2_uncon.png,42,21,NaN,NaN,0.85,0.15,1,1,1,1,Stable,Stable,2.336,0.651,1.685,2.882,inexpert
107,1671117816908,15/12/2022 15:23:36,1671117819894,0,15/12/2022 15:23:39,109680,37,task-rbyw,repeat-u7ds#1->-repeat-l3h2#1,25974544,BLIND,7672976,NaN,complete,NaN,NaN,computer,Desktop or Laptop,Windows 10,Chrome 108.0.0.0,1920x1080,1920x1080,End of Day 1,SLS,90,B,NaN,NaN,NaN,Pass,End of Day 1,Pass,NaN,Pass,NaN,Pass,schedule_B,schedule_B,22,11,4,feedback_l,Zone7,timelimit_screen,1999.958,NaN,NaN,,NaN,0,1,0,NaN,NaN,1,NaN,NaN,trial_left,blueBox.png,blueBox.png,greenBox.png,al2_uncon.png,42,21,NaN,NaN,0.85,0.15,1,1,1,1,Stable,Stable,2.336,0.651,1.685,2.882,inexpert
108,1671117817057,15/12/2022 15:23:37,1671117820044,0,15/12/2022 15:23:40,109680,37,task-rbyw,repeat-u7ds#1->-repeat-l3h2#1,25974544,BLIND,7672976,NaN,complete,NaN,NaN,computer,Desktop or Laptop,Windows 10,Chrome 108.0.0.0,1920x1080,1920x1080,End of Day 1,SLS,90,B,NaN,NaN,NaN,Pass,End of Day 1,Pass,NaN,Pass,NaN,Pass,schedule_B,schedule_B,22,11,6,end,Zone1,timelimit_screen,150.001000000004,NaN,NaN,,NaN,0,1,0,NaN,NaN,1,NaN,NaN,trial_left,blueBox.png,blueBox.png,greenBox.png,al2_uncon.png,42,21,NaN,NaN,0.85,0.15,1,1,1,1,Stable,Stable,2.336,0.651,1.685,2.882,inexpert
109,1671117817658,15/12/2022 15:23:37,1671117820645,0,15/12/2022 15:23:40,109680,37,task-rbyw,repeat-u7ds#1->-repeat-l3h2#1,25974544,BLIND,7672976,NaN,complete,NaN,NaN,computer,Desktop or Laptop,Windows 10,Chrome 108.0.0.0,1920x1080,1920x1080,End of Day 1,SLS,90,B,NaN,NaN,NaN,Pass,End of Day 1,Pass,NaN,Pass,NaN,Pass,schedule_B,schedule_B,23,11,1,Screen 1,Zone1,continue_button,589,NaN,NaN,,NaN,0,1,0,NaN,NaN,NaN,NaN,NaN,trial_right,blueBox.png,blueBox.png,greenBox.png,al2_uncon.png,43,22,NaN,NaN,0.85,0.15,1,0,0,1,Stable,Stable,3.622,1.319,1.193,1.067,inexpert
110,1671117818671,15/12/2022 15:23:38,1671117821644,0,15/12/2022 15:23:41,109680,37,task-rbyw,repeat-u7ds#1->-repeat-l3h2#1,25974544,BLIND,7672976,NaN,complete,NaN,NaN,computer,Desktop or Laptop,Windows 10,Chrome 108.0.0.0,1920x1080,1920x1080,End of Day 1,SLS,90,B,NaN,NaN,NaN,Pass,End of Day 1,Pass,NaN,Pass,NaN,Pass,schedule_B,schedule_B,23,11,2,individual,Zone4,timelimit_screen,999.974000000002,NaN,NaN,,NaN,0,1,0,NaN,NaN,1,NaN,NaN,trial_right,blueBox.png,blueBox.png,greenBox.png,al2_uncon.png,43,22,NaN,NaN,0.85,0.15,1,0,0,1,Stable,Stable,3.622,1.319,1.193,1.067,inexpert
111,1671117819484,15/12/2022 15:23:39,1671117822470,0,15/12/2022 15:23:42,109680,37,task-rbyw,repeat-u7ds#1->-repeat-l3h2#1,25974544,BLIND,7672976,NaN,complete,NaN,NaN,computer,Desktop or Laptop,Windows 10,Chrome 108.0.0.0,1920x1080,1920x1080,End of Day 1,SLS,90,B,NaN,NaN,NaN,Pass,End of Day 1,Pass,NaN,Pass,NaN,Pass,schedule_B,schedule_B,23,11,3,offer,Zone2,response_button_image,819.5,NaN,NaN,blueBox.png,1,1,0,0,NaN,NaN,NaN,NaN,NaN,trial_right,blueBox.png,blueBox.png,greenBox.png,al2_uncon.png,43,22,NaN,NaN,0.85,0.15,1,0,0,1,Stable,Stable,3.622,1.319,1.193,1.067,inexpert
112,1671117821473,15/12/2022 15:23:41,1671117824460,0,15/12/2022 15:23:44,109680,37,task-rbyw,repeat-u7ds#1->-repeat-l3h2#1,25974544,BLIND,7672976,NaN,complete,NaN,NaN,computer,Desktop or Laptop,Windows 10,Chrome 108.0.0.0,1920x1080,1920x1080,End of Day 1,SLS,90,B,NaN,NaN,NaN,Pass,End of Day 1,Pass,NaN,Pass,NaN,Pass,schedule_B,schedule_B,23,11,4,feedback_l,Zone7,timelimit_screen,1999.95999999999,NaN,NaN,,NaN,0,1,0,NaN,NaN,1,NaN,NaN,trial_right,blueBox.png,blueBox.png,greenBox.png,al2_uncon.png,43,22,NaN,NaN,0.85,0.15,1,0,0,1,Stable,Stable,3.622,1.319,1.193,1.067,inexpert
113,1671117821620,15/12/2022 15:23:41,1671117824610,0,15/12/2022 15:23:44,109680,37,task-rbyw,repeat-u7ds#1->-repeat-l3h2#1,25974544,BLIND,7672976,NaN,complete,NaN,NaN,computer,Desktop or Laptop,Windows 10,Chrome 108.0.0.0,1920x1080,1920x1080,End of Day 1,SLS,90,B,NaN,NaN,NaN,Pass,End of Day 1,Pass,NaN,Pass,NaN,Pass,schedule_B,schedule_B,23,11,6,end,Zone1,timelimit_screen,150.055000000008,NaN,NaN,,NaN,0,1,0,NaN,NaN,1,NaN,NaN,trial_right,blueBox.png,blueBox.png,greenBox.png,al2_uncon.png,43,22,NaN,NaN,0.85,0.15,1,0,0,1,Stable,Stable,3.622,1.319,1.193,1.067,inexpert
114,1671117822324,15/12/2022 15:23:42,1671117825310,0,15/12/2022 15:23:45,109680,37,task-rbyw,repeat-u7ds#1->-repeat-l3h2#1,25974544,BLIND,7672976,NaN,complete,NaN,NaN,computer,Desktop or Laptop,Windows 10,Chrome 108.0.0.0,1920x1080,1920x1080,End of Day 1,SLS,90,B,NaN,NaN,NaN,Pass,End of Day 1,Pass,NaN,Pass,NaN,Pass,schedule_B,schedule_B,24,12,1,Screen 1,Zone1,continue_button,688.90000000596,NaN,NaN,,NaN,0,1,0,NaN,NaN,NaN,NaN,NaN,trial_left,blueBox.png,greenBox.png,blueBox.png,al2_uncon.png,44,23,NaN,NaN,0.85,0.15,1,0,0,0,Stable,Stable,1.731,0.853,2,1.202,inexpert
115,1671117823306,15/12/2022 15:23:43,1671117826294,0,15/12/2022 15:23:46,109680,37,task-rbyw,repeat-u7ds#1->-repeat-l3h2#1,25974544,BLIND,7672976,NaN,complete,NaN,NaN,computer,Desktop or Laptop,Windows 10,Chrome 108.0.0.0,1920x1080,1920x1080,End of Day 1,SLS,90,B,NaN,NaN,NaN,Pass,End of Day 1,Pass,NaN,Pass,NaN,Pass,schedule_B,schedule_B,24,12,2,individual,Zone4,timelimit_screen,999.995999999999,NaN,NaN,,NaN,0,1,0,NaN,NaN,1,NaN,NaN,trial_left,blueBox.png,greenBox.png,blueBox.png,al2_uncon.png,44,23,NaN,NaN,0.85,0.15,1,0,0,0,Stable,Stable,1.731,0.853,2,1.202,inexpert
116,1671117826805,15/12/2022 15:23:46,1671117829782,0,15/12/2022 15:23:49,109680,37,task-rbyw,repeat-u7ds#1->-repeat-l3h2#1,25974544,BLIND,7672976,NaN,complete,NaN,NaN,computer,Desktop or Laptop,Windows 10,Chrome 108.0.0.0,1920x1080,1920x1080,End of Day 1,SLS,90,B,NaN,NaN,NaN,Pass,End of Day 1,Pass,NaN,Pass,NaN,Pass,schedule_B,schedule_B,24,12,3,offer,bluebox,response_button_image,3482.19999998808,NaN,NaN,blueBox.png,1,1,0,0,NaN,NaN,NaN,NaN,NaN,trial_left,blueBox.png,greenBox.png,blueBox.png,al2_uncon.png,44,23,NaN,NaN,0.85,0.15,1,0,0,0,Stable,Stable,1.731,0.853,2,1.202,inexpert
117,1671117828789,15/12/2022 15:23:48,1671117831777,0,15/12/2022 15:23:51,109680,37,task-rbyw,repeat-u7ds#1->-repeat-l3h2#1,25974544,BLIND,7672976,NaN,complete,NaN,NaN,computer,Desktop or Laptop,Windows 10,Chrome 108.0.0.0,1920x1080,1920x1080,End of Day 1,SLS,90,B,NaN,NaN,NaN,Pass,End of Day 1,Pass,NaN,Pass,NaN,Pass,schedule_B,schedule_B,24,12,5,feedback_r,Zone7,timelimit_screen,1999.96200000003,NaN,NaN,,NaN,0,1,0,NaN,NaN,1,NaN,NaN,trial_left,blueBox.png,greenBox.png,blueBox.png,al2_uncon.png,44,23,NaN,NaN,0.85,0.15,1,0,0,0,Stable,Stable,1.731,0.853,2,1.202,inexpert
118,1671117828940,15/12/2022 15:23:48,1671117831927,0,15/12/2022 15:23:51,109680,37,task-rbyw,repeat-u7ds#1->-repeat-l3h2#1,25974544,BLIND,7672976,NaN,complete,NaN,NaN,computer,Desktop or Laptop,Windows 10,Chrome 108.0.0.0,1920x1080,1920x1080,End of Day 1,SLS,90,B,NaN,NaN,NaN,Pass,End of Day 1,Pass,NaN,Pass,NaN,Pass,schedule_B,schedule_B,24,12,6,end,Zone1,timelimit_screen,149.983999999997,NaN,NaN,,NaN,0,1,0,NaN,NaN,1,NaN,NaN,trial_left,blueBox.png,greenBox.png,blueBox.png,al2_uncon.png,44,23,NaN,NaN,0.85,0.15,1,0,0,0,Stable,Stable,1.731,0.853,2,1.202,inexpert
119,1671117829769,15/12/2022 15:23:49,1671117832759,0,15/12/2022 15:23:52,109680,37,task-rbyw,repeat-u7ds#1->-repeat-l3h2#1,25974544,BLIND,7672976,NaN,complete,NaN,NaN,computer,Desktop or Laptop,Windows 10,Chrome 108.0.0.0,1920x1080,1920x1080,End of Day 1,SLS,90,B,NaN,NaN,NaN,Pass,End of Day 1,Pass,NaN,Pass,NaN,Pass,schedule_B,schedule_B,25,13,1,Screen 1,Zone1,continue_button,819.700000017881,NaN,NaN,,NaN,0,1,0,NaN,NaN,NaN,NaN,NaN,trial_left,blueBox.png,blueBox.png,greenBox.png,al2_uncon.png,45,24,NaN,NaN,0.85,0.15,1,1,1,1,Stable,Stable,2.109,1.798,1.508,2.782,inexpert
120,1671117830756,15/12/2022 15:23:50,1671117833744,0,15/12/2022 15:23:53,109680,37,task-rbyw,repeat-u7ds#1->-repeat-l3h2#1,25974544,BLIND,7672976,NaN,complete,NaN,NaN,computer,Desktop or Laptop,Windows 10,Chrome 108.0.0.0,1920x1080,1920x1080,End of Day 1,SLS,90,B,NaN,NaN,NaN,Pass,End of Day 1,Pass,NaN,Pass,NaN,Pass,schedule_B,schedule_B,25,13,2,individual,Zone4,timelimit_screen,999.967000000004,NaN,NaN,,NaN,0,1,0,NaN,NaN,1,NaN,NaN,trial_left,blueBox.png,blueBox.png,greenBox.png,al2_uncon.png,45,24,NaN,NaN,0.85,0.15,1,1,1,1,Stable,Stable,2.109,1.798,1.508,2.782,inexpert
121,1671117831496,15/12/2022 15:23:51,1671117834487,0,15/12/2022 15:23:54,109680,37,task-rbyw,repeat-u7ds#1->-repeat-l3h2#1,25974544,BLIND,7672976,NaN,complete,NaN,NaN,computer,Desktop or Laptop,Windows 10,Chrome 108.0.0.0,1920x1080,1920x1080,End of Day 1,SLS,90,B,NaN,NaN,NaN,Pass,End of Day 1,Pass,NaN,Pass,NaN,Pass,schedule_B,schedule_B,25,13,3,offer,Zone2,response_button_image,736.90000000596,NaN,NaN,blueBox.png,1,1,0,0,NaN,NaN,NaN,NaN,NaN,trial_left,blueBox.png,blueBox.png,greenBox.png,al2_uncon.png,45,24,NaN,NaN,0.85,0.15,1,1,1,1,Stable,Stable,2.109,1.798,1.508,2.782,inexpert
122,1671117833494,15/12/2022 15:23:53,1671117836477,0,15/12/2022 15:23:56,109680,37,task-rbyw,repeat-u7ds#1->-repeat-l3h2#1,25974544,BLIND,7672976,NaN,complete,NaN,NaN,computer,Desktop or Laptop,Windows 10,Chrome 108.0.0.0,1920x1080,1920x1080,End of Day 1,SLS,90,B,NaN,NaN,NaN,Pass,End of Day 1,Pass,NaN,Pass,NaN,Pass,schedule_B,schedule_B,25,13,4,feedback_l,Zone7,timelimit_screen,1999.95699999999,NaN,NaN,,NaN,0,1,0,NaN,NaN,1,NaN,NaN,trial_left,blueBox.png,blueBox.png,greenBox.png,al2_uncon.png,45,24,NaN,NaN,0.85,0.15,1,1,1,1,Stable,Stable,2.109,1.798,1.508,2.782,inexpert
123,1671117833658,15/12/2022 15:23:53,1671117836627,0,15/12/2022 15:23:56,109680,37,task-rbyw,repeat-u7ds#1->-repeat-l3h2#1,25974544,BLIND,7672976,NaN,complete,NaN,NaN,computer,Desktop or Laptop,Windows 10,Chrome 108.0.0.0,1920x1080,1920x1080,End of Day 1,SLS,90,B,NaN,NaN,NaN,Pass,End of Day 1,Pass,NaN,Pass,NaN,Pass,schedule_B,schedule_B,25,13,6,end,Zone1,timelimit_screen,150.065000000002,NaN,NaN,,NaN,0,1,0,NaN,NaN,1,NaN,NaN,trial_left,blueBox.png,blueBox.png,greenBox.png,al2_uncon.png,45,24,NaN,NaN,0.85,0.15,1,1,1,1,Stable,Stable,2.109,1.798,1.508,2.782,inexpert
124,1671117834553,15/12/2022 15:23:54,1671117837544,0,15/12/2022 15:23:57,109680,37,task-rbyw,repeat-u7ds#1->-repeat-l3h2#1,25974544,BLIND,7672976,NaN,complete,NaN,NaN,computer,Desktop or Laptop,Windows 10,Chrome 108.0.0.0,1920x1080,1920x1080,End of Day 1,SLS,90,B,NaN,NaN,NaN,Pass,End of Day 1,Pass,NaN,Pass,NaN,Pass,schedule_B,schedule_B,26,12,1,Screen 1,Zone1,continue_button,906.699999988079,NaN,NaN,,NaN,0,1,0,NaN,NaN,NaN,NaN,NaN,trial_right,blueBox.png,greenBox.png,blueBox.png,al2_uncon.png,46,25,NaN,NaN,0.85,0.15,1,1,1,0,Stable,Stable,2.916,1.294,1.962,2.361,inexpert
125,1671117835536,15/12/2022 15:23:55,1671117838527,0,15/12/2022 15:23:58,109680,37,task-rbyw,repeat-u7ds#1->-repeat-l3h2#1,25974544,BLIND,7672976,NaN,complete,NaN,NaN,computer,Desktop or Laptop,Windows 10,Chrome 108.0.0.0,1920x1080,1920x1080,End of Day 1,SLS,90,B,NaN,NaN,NaN,Pass,End of Day 1,Pass,NaN,Pass,NaN,Pass,schedule_B,schedule_B,26,12,2,individual,Zone4,timelimit_screen,999.974000000017,NaN,NaN,,NaN,0,1,0,NaN,NaN,1,NaN,NaN,trial_right,blueBox.png,greenBox.png,blueBox.png,al2_uncon.png,46,25,NaN,NaN,0.85,0.15,1,1,1,0,Stable,Stable,2.916,1.294,1.962,2.361,inexpert
126,1671117836508,15/12/2022 15:23:56,1671117839496,0,15/12/2022 15:23:59,109680,37,task-rbyw,repeat-u7ds#1->-repeat-l3h2#1,25974544,BLIND,7672976,NaN,complete,NaN,NaN,computer,Desktop or Laptop,Windows 10,Chrome 108.0.0.0,1920x1080,1920x1080,End of Day 1,SLS,90,B,NaN,NaN,NaN,Pass,End of Day 1,Pass,NaN,Pass,NaN,Pass,schedule_B,schedule_B,26,12,3,offer,Zone2,response_button_image,962.5,NaN,NaN,greenBox.png,1,0,1,0,NaN,NaN,NaN,NaN,NaN,trial_right,blueBox.png,greenBox.png,blueBox.png,al2_uncon.png,46,25,NaN,NaN,0.85,0.15,1,1,1,0,Stable,Stable,2.916,1.294,1.962,2.361,inexpert
127,1671117838507,15/12/2022 15:23:58,1671117841494,0,15/12/2022 15:24:01,109680,37,task-rbyw,repeat-u7ds#1->-repeat-l3h2#1,25974544,BLIND,7672976,NaN,complete,NaN,NaN,computer,Desktop or Laptop,Windows 10,Chrome 108.0.0.0,1920x1080,1920x1080,End of Day 1,SLS,90,B,NaN,NaN,NaN,Pass,End of Day 1,Pass,NaN,Pass,NaN,Pass,schedule_B,schedule_B,26,12,4,feedback_l,Zone7,timelimit_screen,1999.96400000001,NaN,NaN,,NaN,0,1,0,NaN,NaN,1,NaN,NaN,trial_right,blueBox.png,greenBox.png,blueBox.png,al2_uncon.png,46,25,NaN,NaN,0.85,0.15,1,1,1,0,Stable,Stable,2.916,1.294,1.962,2.361,inexpert
128,1671117838657,15/12/2022 15:23:58,1671117841644,0,15/12/2022 15:24:01,109680,37,task-rbyw,repeat-u7ds#1->-repeat-l3h2#1,25974544,BLIND,7672976,NaN,complete,NaN,NaN,computer,Desktop or Laptop,Windows 10,Chrome 108.0.0.0,1920x1080,1920x1080,End of Day 1,SLS,90,B,NaN,NaN,NaN,Pass,End of Day 1,Pass,NaN,Pass,NaN,Pass,schedule_B,schedule_B,26,12,6,end,Zone1,timelimit_screen,149.983999999997,NaN,NaN,,NaN,0,1,0,NaN,NaN,1,NaN,NaN,trial_right,blueBox.png,greenBox.png,blueBox.png,al2_uncon.png,46,25,NaN,NaN,0.85,0.15,1,1,1,0,Stable,Stable,2.916,1.294,1.962,2.361,inexpert
129,1671117840418,15/12/2022 15:24:00,1671117843400,0,15/12/2022 15:24:03,109680,37,task-rbyw,repeat-u7ds#1->-repeat-l3h2#1,25974544,BLIND,7672976,NaN,complete,NaN,NaN,computer,Desktop or Laptop,Windows 10,Chrome 108.0.0.0,1920x1080,1920x1080,End of Day 1,SLS,90,B,NaN,NaN,NaN,Pass,End of Day 1,Pass,NaN,Pass,NaN,Pass,schedule_B,schedule_B,27,13,1,Screen 1,Zone1,continue_button,1743.79999998212,NaN,NaN,,NaN,0,1,0,NaN,NaN,NaN,NaN,NaN,trial_right,blueBox.png,blueBox.png,greenBox.png,al2_uncon.png,47,26,NaN,NaN,0.85,0.15,1,0,0,1,Stable,Stable,2.487,1.697,1.13,1.286,inexpert
130,1671117841404,15/12/2022 15:24:01,1671117844394,0,15/12/2022 15:24:04,109680,37,task-rbyw,repeat-u7ds#1->-repeat-l3h2#1,25974544,BLIND,7672976,NaN,complete,NaN,NaN,computer,Desktop or Laptop,Windows 10,Chrome 108.0.0.0,1920x1080,1920x1080,End of Day 1,SLS,90,B,NaN,NaN,NaN,Pass,End of Day 1,Pass,NaN,Pass,NaN,Pass,schedule_B,schedule_B,27,13,2,individual,Zone4,timelimit_screen,999.967000000004,NaN,NaN,,NaN,0,1,0,NaN,NaN,1,NaN,NaN,trial_right,blueBox.png,blueBox.png,greenBox.png,al2_uncon.png,47,26,NaN,NaN,0.85,0.15,1,0,0,1,Stable,Stable,2.487,1.697,1.13,1.286,inexpert
131,1671117842709,15/12/2022 15:24:02,1671117845688,0,15/12/2022 15:24:05,109680,37,task-rbyw,repeat-u7ds#1->-repeat-l3h2#1,25974544,BLIND,7672976,NaN,complete,NaN,NaN,computer,Desktop or Laptop,Windows 10,Chrome 108.0.0.0,1920x1080,1920x1080,End of Day 1,SLS,90,B,NaN,NaN,NaN,Pass,End of Day 1,Pass,NaN,Pass,NaN,Pass,schedule_B,schedule_B,27,13,3,offer,Zone3,response_button_image,1287.89999997616,NaN,NaN,greenBox.png,1,0,1,0,NaN,NaN,NaN,NaN,NaN,trial_right,blueBox.png,blueBox.png,greenBox.png,al2_uncon.png,47,26,NaN,NaN,0.85,0.15,1,0,0,1,Stable,Stable,2.487,1.697,1.13,1.286,inexpert
132,1671117844788,15/12/2022 15:24:04,1671117847677,0,15/12/2022 15:24:07,109680,37,task-rbyw,repeat-u7ds#1->-repeat-l3h2#1,25974544,BLIND,7672976,NaN,complete,NaN,NaN,computer,Desktop or Laptop,Windows 10,Chrome 108.0.0.0,1920x1080,1920x1080,End of Day 1,SLS,90,B,NaN,NaN,NaN,Pass,End of Day 1,Pass,NaN,Pass,NaN,Pass,schedule_B,schedule_B,27,13,5,feedback_r,Zone7,timelimit_screen,1999.992,NaN,NaN,,NaN,0,1,0,NaN,NaN,1,NaN,NaN,trial_right,blueBox.png,blueBox.png,greenBox.png,al2_uncon.png,47,26,NaN,NaN,0.85,0.15,1,0,0,1,Stable,Stable,2.487,1.697,1.13,1.286,inexpert
133,1671117844860,15/12/2022 15:24:04,1671117847827,0,15/12/2022 15:24:07,109680,37,task-rbyw,repeat-u7ds#1->-repeat-l3h2#1,25974544,BLIND,7672976,NaN,complete,NaN,NaN,computer,Desktop or Laptop,Windows 10,Chrome 108.0.0.0,1920x1080,1920x1080,End of Day 1,SLS,90,B,NaN,NaN,NaN,Pass,End of Day 1,Pass,NaN,Pass,NaN,Pass,schedule_B,schedule_B,27,13,6,end,Zone1,timelimit_screen,149.956000000006,NaN,NaN,,NaN,0,1,0,NaN,NaN,1,NaN,NaN,trial_right,blueBox.png,blueBox.png,greenBox.png,al2_uncon.png,47,26,NaN,NaN,0.85,0.15,1,0,0,1,Stable,Stable,2.487,1.697,1.13,1.286,inexpert
134,1671117845966,15/12/2022 15:24:05,1671117848953,0,15/12/2022 15:24:08,109680,37,task-rbyw,repeat-u7ds#1->-repeat-l3h2#1,25974544,BLIND,7672976,NaN,complete,NaN,NaN,computer,Desktop or Laptop,Windows 10,Chrome 108.0.0.0,1920x1080,1920x1080,End of Day 1,SLS,90,B,NaN,NaN,NaN,Pass,End of Day 1,Pass,NaN,Pass,NaN,Pass,schedule_B,schedule_B,28,14,1,Screen 1,Zone1,continue_button,1116.60000002384,NaN,NaN,,NaN,0,1,0,NaN,NaN,NaN,NaN,NaN,trial_left,blueBox.png,greenBox.png,blueBox.png,al2_uncon.png,48,27,NaN,NaN,0.85,0.15,1,0,0,0,Stable,Stable,3.824,1.634,0.992,2.244,inexpert
135,1671117847034,15/12/2022 15:24:07,1671117849944,0,15/12/2022 15:24:09,109680,37,task-rbyw,repeat-u7ds#1->-repeat-l3h2#1,25974544,BLIND,7672976,NaN,complete,NaN,NaN,computer,Desktop or Laptop,Windows 10,Chrome 108.0.0.0,1920x1080,1920x1080,End of Day 1,SLS,90,B,NaN,NaN,NaN,Pass,End of Day 1,Pass,NaN,Pass,NaN,Pass,schedule_B,schedule_B,28,14,2,individual,Zone4,timelimit_screen,999.977000000014,NaN,NaN,,NaN,0,1,0,NaN,NaN,1,NaN,NaN,trial_left,blueBox.png,greenBox.png,blueBox.png,al2_uncon.png,48,27,NaN,NaN,0.85,0.15,1,0,0,0,Stable,Stable,3.824,1.634,0.992,2.244,inexpert
136,1671117847552,15/12/2022 15:24:07,1671117850529,0,15/12/2022 15:24:10,109680,37,task-rbyw,repeat-u7ds#1->-repeat-l3h2#1,25974544,BLIND,7672976,NaN,complete,NaN,NaN,computer,Desktop or Laptop,Windows 10,Chrome 108.0.0.0,1920x1080,1920x1080,End of Day 1,SLS,90,B,NaN,NaN,NaN,Pass,End of Day 1,Pass,NaN,Pass,NaN,Pass,schedule_B,schedule_B,28,14,3,offer,Zone2,response_button_image,578.40000000596,NaN,NaN,greenBox.png,1,0,1,0,NaN,NaN,NaN,NaN,NaN,trial_left,blueBox.png,greenBox.png,blueBox.png,al2_uncon.png,48,27,NaN,NaN,0.85,0.15,1,0,0,0,Stable,Stable,3.824,1.634,0.992,2.244,inexpert
137,1671117849552,15/12/2022 15:24:09,1671117852527,0,15/12/2022 15:24:12,109680,37,task-rbyw,repeat-u7ds#1->-repeat-l3h2#1,25974544,BLIND,7672976,NaN,complete,NaN,NaN,computer,Desktop or Laptop,Windows 10,Chrome 108.0.0.0,1920x1080,1920x1080,End of Day 1,SLS,90,B,NaN,NaN,NaN,Pass,End of Day 1,Pass,NaN,Pass,NaN,Pass,schedule_B,schedule_B,28,14,4,feedback_l,Zone7,timelimit_screen,1999.921,NaN,NaN,,NaN,0,1,0,NaN,NaN,1,NaN,NaN,trial_left,blueBox.png,greenBox.png,blueBox.png,al2_uncon.png,48,27,NaN,NaN,0.85,0.15,1,0,0,0,Stable,Stable,3.824,1.634,0.992,2.244,inexpert
138,1671117849931,15/12/2022 15:24:09,1671117852677,0,15/12/2022 15:24:12,109680,37,task-rbyw,repeat-u7ds#1->-repeat-l3h2#1,25974544,BLIND,7672976,NaN,complete,NaN,NaN,computer,Desktop or Laptop,Windows 10,Chrome 108.0.0.0,1920x1080,1920x1080,End of Day 1,SLS,90,B,NaN,NaN,NaN,Pass,End of Day 1,Pass,NaN,Pass,NaN,Pass,schedule_B,schedule_B,28,14,6,end,Zone1,timelimit_screen,150.038,NaN,NaN,,NaN,0,1,0,NaN,NaN,1,NaN,NaN,trial_left,blueBox.png,greenBox.png,blueBox.png,al2_uncon.png,48,27,NaN,NaN,0.85,0.15,1,0,0,0,Stable,Stable,3.824,1.634,0.992,2.244,inexpert
139,1671117850284,15/12/2022 15:24:10,1671117853273,0,15/12/2022 15:24:13,109680,37,task-rbyw,repeat-u7ds#1->-repeat-l3h2#1,25974544,BLIND,7672976,NaN,complete,NaN,NaN,computer,Desktop or Laptop,Windows 10,Chrome 108.0.0.0,1920x1080,1920x1080,End of Day 1,SLS,90,B,NaN,NaN,NaN,Pass,End of Day 1,Pass,NaN,Pass,NaN,Pass,schedule_B,schedule_B,29,14,1,Screen 1,Zone1,continue_button,585.09999999404,NaN,NaN,,NaN,0,1,0,NaN,NaN,NaN,NaN,NaN,trial_right,blueBox.png,blueBox.png,greenBox.png,al2_uncon.png,49,28,NaN,NaN,0.85,0.15,1,0,0,1,Stable,Stable,2.84,1.937,1.723,2.815,inexpert
140,1671117851273,15/12/2022 15:24:11,1671117854260,0,15/12/2022 15:24:14,109680,37,task-rbyw,repeat-u7ds#1->-repeat-l3h2#1,25974544,BLIND,7672976,NaN,complete,NaN,NaN,computer,Desktop or Laptop,Windows 10,Chrome 108.0.0.0,1920x1080,1920x1080,End of Day 1,SLS,90,B,NaN,NaN,NaN,Pass,End of Day 1,Pass,NaN,Pass,NaN,Pass,schedule_B,schedule_B,29,14,2,individual,Zone4,timelimit_screen,999.974000000017,NaN,NaN,,NaN,0,1,0,NaN,NaN,1,NaN,NaN,trial_right,blueBox.png,blueBox.png,greenBox.png,al2_uncon.png,49,28,NaN,NaN,0.85,0.15,1,0,0,1,Stable,Stable,2.84,1.937,1.723,2.815,inexpert
141,1671117852090,15/12/2022 15:24:12,1671117855065,0,15/12/2022 15:24:15,109680,37,task-rbyw,repeat-u7ds#1->-repeat-l3h2#1,25974544,BLIND,7672976,NaN,complete,NaN,NaN,computer,Desktop or Laptop,Windows 10,Chrome 108.0.0.0,1920x1080,1920x1080,End of Day 1,SLS,90,B,NaN,NaN,NaN,Pass,End of Day 1,Pass,NaN,Pass,NaN,Pass,schedule_B,schedule_B,29,14,3,offer,Zone2,response_button_image,799.199999988079,NaN,NaN,blueBox.png,1,1,0,0,NaN,NaN,NaN,NaN,NaN,trial_right,blueBox.png,blueBox.png,greenBox.png,al2_uncon.png,49,28,NaN,NaN,0.85,0.15,1,0,0,1,Stable,Stable,2.84,1.937,1.723,2.815,inexpert
142,1671117854079,15/12/2022 15:24:14,1671117857060,0,15/12/2022 15:24:17,109680,37,task-rbyw,repeat-u7ds#1->-repeat-l3h2#1,25974544,BLIND,7672976,NaN,complete,NaN,NaN,computer,Desktop or Laptop,Windows 10,Chrome 108.0.0.0,1920x1080,1920x1080,End of Day 1,SLS,90,B,NaN,NaN,NaN,Pass,End of Day 1,Pass,NaN,Pass,NaN,Pass,schedule_B,schedule_B,29,14,4,feedback_l,Zone7,timelimit_screen,1999.94200000001,NaN,NaN,,NaN,0,1,0,NaN,NaN,1,NaN,NaN,trial_right,blueBox.png,blueBox.png,greenBox.png,al2_uncon.png,49,28,NaN,NaN,0.85,0.15,1,0,0,1,Stable,Stable,2.84,1.937,1.723,2.815,inexpert
143,1671117854218,15/12/2022 15:24:14,1671117857210,0,15/12/2022 15:24:17,109680,37,task-rbyw,repeat-u7ds#1->-repeat-l3h2#1,25974544,BLIND,7672976,NaN,complete,NaN,NaN,computer,Desktop or Laptop,Windows 10,Chrome 108.0.0.0,1920x1080,1920x1080,End of Day 1,SLS,90,B,NaN,NaN,NaN,Pass,End of Day 1,Pass,NaN,Pass,NaN,Pass,schedule_B,schedule_B,29,14,6,end,Zone1,timelimit_screen,149.959999999992,NaN,NaN,,NaN,0,1,0,NaN,NaN,1,NaN,NaN,trial_right,blueBox.png,blueBox.png,greenBox.png,al2_uncon.png,49,28,NaN,NaN,0.85,0.15,1,0,0,1,Stable,Stable,2.84,1.937,1.723,2.815,inexpert
144,1671117855263,15/12/2022 15:24:15,1671117858258,0,15/12/2022 15:24:18,109680,37,task-rbyw,repeat-u7ds#1->-repeat-l3h2#1,25974544,BLIND,7672976,NaN,complete,NaN,NaN,computer,Desktop or Laptop,Windows 10,Chrome 108.0.0.0,1920x1080,1920x1080,End of Day 1,SLS,90,B,NaN,NaN,NaN,Pass,End of Day 1,Pass,NaN,Pass,NaN,Pass,schedule_B,schedule_B,30,15,1,Screen 1,Zone1,continue_button,1037.30000001192,NaN,NaN,,NaN,0,1,0,NaN,NaN,NaN,NaN,NaN,trial_right,blueBox.png,blueBox.png,greenBox.png,al2_uncon.png,50,29,NaN,NaN,0.85,0.15,1,0,0,1,Stable,Stable,2.941,1.71,0.664,1.336,inexpert
145,1671117856254,15/12/2022 15:24:16,1671117859244,0,15/12/2022 15:24:19,109680,37,task-rbyw,repeat-u7ds#1->-repeat-l3h2#1,25974544,BLIND,7672976,NaN,complete,NaN,NaN,computer,Desktop or Laptop,Windows 10,Chrome 108.0.0.0,1920x1080,1920x1080,End of Day 1,SLS,90,B,NaN,NaN,NaN,Pass,End of Day 1,Pass,NaN,Pass,NaN,Pass,schedule_B,schedule_B,30,15,2,individual,Zone4,timelimit_screen,1000.02600000001,NaN,NaN,,NaN,0,1,0,NaN,NaN,1,NaN,NaN,trial_right,blueBox.png,blueBox.png,greenBox.png,al2_uncon.png,50,29,NaN,NaN,0.85,0.15,1,0,0,1,Stable,Stable,2.941,1.71,0.664,1.336,inexpert
146,1671117857049,15/12/2022 15:24:17,1671117860034,0,15/12/2022 15:24:20,109680,37,task-rbyw,repeat-u7ds#1->-repeat-l3h2#1,25974544,BLIND,7672976,NaN,complete,NaN,NaN,computer,Desktop or Laptop,Windows 10,Chrome 108.0.0.0,1920x1080,1920x1080,End of Day 1,SLS,90,B,NaN,NaN,NaN,Pass,End of Day 1,Pass,NaN,Pass,NaN,Pass,schedule_B,schedule_B,30,15,3,offer,Zone2,response_button_image,784.5,NaN,NaN,blueBox.png,1,1,0,0,NaN,NaN,NaN,NaN,NaN,trial_right,blueBox.png,blueBox.png,greenBox.png,al2_uncon.png,50,29,NaN,NaN,0.85,0.15,1,0,0,1,Stable,Stable,2.941,1.71,0.664,1.336,inexpert
147,1671117859033,15/12/2022 15:24:19,1671117862027,0,15/12/2022 15:24:22,109680,37,task-rbyw,repeat-u7ds#1->-repeat-l3h2#1,25974544,BLIND,7672976,NaN,complete,NaN,NaN,computer,Desktop or Laptop,Windows 10,Chrome 108.0.0.0,1920x1080,1920x1080,End of Day 1,SLS,90,B,NaN,NaN,NaN,Pass,End of Day 1,Pass,NaN,Pass,NaN,Pass,schedule_B,schedule_B,30,15,4,feedback_l,Zone7,timelimit_screen,1999.959,NaN,NaN,,NaN,0,1,0,NaN,NaN,1,NaN,NaN,trial_right,blueBox.png,blueBox.png,greenBox.png,al2_uncon.png,50,29,NaN,NaN,0.85,0.15,1,0,0,1,Stable,Stable,2.941,1.71,0.664,1.336,inexpert
148,1671117859189,15/12/2022 15:24:19,1671117862177,0,15/12/2022 15:24:22,109680,37,task-rbyw,repeat-u7ds#1->-repeat-l3h2#1,25974544,BLIND,7672976,NaN,complete,NaN,NaN,computer,Desktop or Laptop,Windows 10,Chrome 108.0.0.0,1920x1080,1920x1080,End of Day 1,SLS,90,B,NaN,NaN,NaN,Pass,End of Day 1,Pass,NaN,Pass,NaN,Pass,schedule_B,schedule_B,30,15,6,end,Zone1,timelimit_screen,150.007000000012,NaN,NaN,,NaN,0,1,0,NaN,NaN,1,NaN,NaN,trial_right,blueBox.png,blueBox.png,greenBox.png,al2_uncon.png,50,29,NaN,NaN,0.85,0.15,1,0,0,1,Stable,Stable,2.941,1.71,0.664,1.336,inexpert
149,1671117860150,15/12/2022 15:24:20,1671117863138,0,15/12/2022 15:24:23,109680,37,task-rbyw,repeat-u7ds#1->-repeat-l3h2#1,25974544,BLIND,7672976,NaN,complete,NaN,NaN,computer,Desktop or Laptop,Windows 10,Chrome 108.0.0.0,1920x1080,1920x1080,End of Day 1,SLS,90,B,NaN,NaN,NaN,Pass,End of Day 1,Pass,NaN,Pass,NaN,Pass,schedule_B,schedule_B,31,15,1,Screen 1,Zone1,continue_button,949.59999999404,NaN,NaN,,NaN,0,1,0,NaN,NaN,NaN,NaN,NaN,trial_left,blueBox.png,greenBox.png,blueBox.png,al2_uncon.png,61,30,NaN,NaN,0.85,0.15,1,0,0,0,Stable,Stable,2.79,1.735,0.601,2.345,inexpert
150,1671117861137,15/12/2022 15:24:21,1671117864127,0,15/12/2022 15:24:24,109680,37,task-rbyw,repeat-u7ds#1->-repeat-l3h2#1,25974544,BLIND,7672976,NaN,complete,NaN,NaN,computer,Desktop or Laptop,Windows 10,Chrome 108.0.0.0,1920x1080,1920x1080,End of Day 1,SLS,90,B,NaN,NaN,NaN,Pass,End of Day 1,Pass,NaN,Pass,NaN,Pass,schedule_B,schedule_B,31,15,2,individual,Zone4,timelimit_screen,1000.014,NaN,NaN,,NaN,0,1,0,NaN,NaN,1,NaN,NaN,trial_left,blueBox.png,greenBox.png,blueBox.png,al2_uncon.png,61,30,NaN,NaN,0.85,0.15,1,0,0,0,Stable,Stable,2.79,1.735,0.601,2.345,inexpert
151,1671117862498,15/12/2022 15:24:22,1671117865162,0,15/12/2022 15:24:25,109680,37,task-rbyw,repeat-u7ds#1->-repeat-l3h2#1,25974544,BLIND,7672976,NaN,complete,NaN,NaN,computer,Desktop or Laptop,Windows 10,Chrome 108.0.0.0,1920x1080,1920x1080,End of Day 1,SLS,90,B,NaN,NaN,NaN,Pass,End of Day 1,Pass,NaN,Pass,NaN,Pass,schedule_B,schedule_B,31,15,3,offer,bluebox,response_button_image,1029.40000000596,NaN,NaN,blueBox.png,1,1,0,0,NaN,NaN,NaN,NaN,NaN,trial_left,blueBox.png,greenBox.png,blueBox.png,al2_uncon.png,61,30,NaN,NaN,0.85,0.15,1,0,0,0,Stable,Stable,2.79,1.735,0.601,2.345,inexpert
152,1671117864180,15/12/2022 15:24:24,1671117867160,0,15/12/2022 15:24:27,109680,37,task-rbyw,repeat-u7ds#1->-repeat-l3h2#1,25974544,BLIND,7672976,NaN,complete,NaN,NaN,computer,Desktop or Laptop,Windows 10,Chrome 108.0.0.0,1920x1080,1920x1080,End of Day 1,SLS,90,B,NaN,NaN,NaN,Pass,End of Day 1,Pass,NaN,Pass,NaN,Pass,schedule_B,schedule_B,31,15,5,feedback_r,Zone7,timelimit_screen,1999.965,NaN,NaN,,NaN,0,1,0,NaN,NaN,1,NaN,NaN,trial_left,blueBox.png,greenBox.png,blueBox.png,al2_uncon.png,61,30,NaN,NaN,0.85,0.15,1,0,0,0,Stable,Stable,2.79,1.735,0.601,2.345,inexpert
153,1671117864322,15/12/2022 15:24:24,1671117867310,0,15/12/2022 15:24:27,109680,37,task-rbyw,repeat-u7ds#1->-repeat-l3h2#1,25974544,BLIND,7672976,NaN,complete,NaN,NaN,computer,Desktop or Laptop,Windows 10,Chrome 108.0.0.0,1920x1080,1920x1080,End of Day 1,SLS,90,B,NaN,NaN,NaN,Pass,End of Day 1,Pass,NaN,Pass,NaN,Pass,schedule_B,schedule_B,31,15,6,end,Zone1,timelimit_screen,149.945999999996,NaN,NaN,,NaN,0,1,0,NaN,NaN,1,NaN,NaN,trial_left,blueBox.png,greenBox.png,blueBox.png,al2_uncon.png,61,30,NaN,NaN,0.85,0.15,1,0,0,0,Stable,Stable,2.79,1.735,0.601,2.345,inexpert
154,1671117865513,15/12/2022 15:24:25,1671117868499,0,15/12/2022 15:24:28,109680,37,task-rbyw,repeat-u7ds#1->-repeat-l3h2#1,25974544,BLIND,7672976,NaN,complete,NaN,NaN,computer,Desktop or Laptop,Windows 10,Chrome 108.0.0.0,1920x1080,1920x1080,End of Day 1,SLS,90,B,NaN,NaN,NaN,Pass,End of Day 1,Pass,NaN,Pass,NaN,Pass,schedule_B,schedule_B,32,16,1,Screen 1,Zone1,continue_button,1178.60000002384,NaN,NaN,,NaN,0,1,0,NaN,NaN,NaN,NaN,NaN,trial_right,blueBox.png,greenBox.png,blueBox.png,al2_uncon.png,62,31,NaN,NaN,0.85,0.85,1,1,1,0,Volatile,Volatile,2.538,1.672,1.143,1.555,inexpert
155,1671117866510,15/12/2022 15:24:26,1671117869493,0,15/12/2022 15:24:29,109680,37,task-rbyw,repeat-u7ds#1->-repeat-l3h2#1,25974544,BLIND,7672976,NaN,complete,NaN,NaN,computer,Desktop or Laptop,Windows 10,Chrome 108.0.0.0,1920x1080,1920x1080,End of Day 1,SLS,90,B,NaN,NaN,NaN,Pass,End of Day 1,Pass,NaN,Pass,NaN,Pass,schedule_B,schedule_B,32,16,2,individual,Zone4,timelimit_screen,999.93299999999,NaN,NaN,,NaN,0,1,0,NaN,NaN,1,NaN,NaN,trial_right,blueBox.png,greenBox.png,blueBox.png,al2_uncon.png,62,31,NaN,NaN,0.85,0.85,1,1,1,0,Volatile,Volatile,2.538,1.672,1.143,1.555,inexpert
156,1671117867462,15/12/2022 15:24:27,1671117870451,0,15/12/2022 15:24:30,109680,37,task-rbyw,repeat-u7ds#1->-repeat-l3h2#1,25974544,BLIND,7672976,NaN,complete,NaN,NaN,computer,Desktop or Laptop,Windows 10,Chrome 108.0.0.0,1920x1080,1920x1080,End of Day 1,SLS,90,B,NaN,NaN,NaN,Pass,End of Day 1,Pass,NaN,Pass,NaN,Pass,schedule_B,schedule_B,32,16,3,offer,Zone2,response_button_image,952.199999988079,NaN,NaN,greenBox.png,1,0,1,0,NaN,NaN,NaN,NaN,NaN,trial_right,blueBox.png,greenBox.png,blueBox.png,al2_uncon.png,62,31,NaN,NaN,0.85,0.85,1,1,1,0,Volatile,Volatile,2.538,1.672,1.143,1.555,inexpert
157,1671117869480,15/12/2022 15:24:29,1671117872443,0,15/12/2022 15:24:32,109680,37,task-rbyw,repeat-u7ds#1->-repeat-l3h2#1,25974544,BLIND,7672976,NaN,complete,NaN,NaN,computer,Desktop or Laptop,Windows 10,Chrome 108.0.0.0,1920x1080,1920x1080,End of Day 1,SLS,90,B,NaN,NaN,NaN,Pass,End of Day 1,Pass,NaN,Pass,NaN,Pass,schedule_B,schedule_B,32,16,4,feedback_l,Zone7,timelimit_screen,1999.91500000001,NaN,NaN,,NaN,0,1,0,NaN,NaN,1,NaN,NaN,trial_right,blueBox.png,greenBox.png,blueBox.png,al2_uncon.png,62,31,NaN,NaN,0.85,0.85,1,1,1,0,Volatile,Volatile,2.538,1.672,1.143,1.555,inexpert
158,1671117869618,15/12/2022 15:24:29,1671117872593,0,15/12/2022 15:24:32,109680,37,task-rbyw,repeat-u7ds#1->-repeat-l3h2#1,25974544,BLIND,7672976,NaN,complete,NaN,NaN,computer,Desktop or Laptop,Windows 10,Chrome 108.0.0.0,1920x1080,1920x1080,End of Day 1,SLS,90,B,NaN,NaN,NaN,Pass,End of Day 1,Pass,NaN,Pass,NaN,Pass,schedule_B,schedule_B,32,16,6,end,Zone1,timelimit_screen,150.002999999997,NaN,NaN,,NaN,0,1,0,NaN,NaN,1,NaN,NaN,trial_right,blueBox.png,greenBox.png,blueBox.png,al2_uncon.png,62,31,NaN,NaN,0.85,0.85,1,1,1,0,Volatile,Volatile,2.538,1.672,1.143,1.555,inexpert
159,1671117872288,15/12/2022 15:24:32,1671117875203,0,15/12/2022 15:24:35,109680,37,task-rbyw,repeat-u7ds#1->-repeat-l3h2#1,25974544,BLIND,7672976,NaN,complete,NaN,NaN,computer,Desktop or Laptop,Windows 10,Chrome 108.0.0.0,1920x1080,1920x1080,End of Day 1,SLS,90,B,NaN,NaN,NaN,Pass,End of Day 1,Pass,NaN,Pass,NaN,Pass,schedule_B,schedule_B,33,16,1,Screen 1,Zone1,continue_button,2598.19999998808,NaN,NaN,,NaN,0,1,0,NaN,NaN,NaN,NaN,NaN,trial_left,blueBox.png,greenBox.png,blueBox.png,al2_uncon.png,63,32,NaN,NaN,0.85,0.85,1,0,0,0,Volatile,Volatile,2.739,1.13,0.815,1.387,inexpert
160,1671117873199,15/12/2022 15:24:33,1671117876193,0,15/12/2022 15:24:36,109680,37,task-rbyw,repeat-u7ds#1->-repeat-l3h2#1,25974544,BLIND,7672976,NaN,complete,NaN,NaN,computer,Desktop or Laptop,Windows 10,Chrome 108.0.0.0,1920x1080,1920x1080,End of Day 1,SLS,90,B,NaN,NaN,NaN,Pass,End of Day 1,Pass,NaN,Pass,NaN,Pass,schedule_B,schedule_B,33,16,2,individual,Zone4,timelimit_screen,999.97099999999,NaN,NaN,,NaN,0,1,0,NaN,NaN,1,NaN,NaN,trial_left,blueBox.png,greenBox.png,blueBox.png,al2_uncon.png,63,32,NaN,NaN,0.85,0.85,1,0,0,0,Volatile,Volatile,2.739,1.13,0.815,1.387,inexpert
161,1671117875310,15/12/2022 15:24:35,1671117878300,0,15/12/2022 15:24:38,109680,37,task-rbyw,repeat-u7ds#1->-repeat-l3h2#1,25974544,BLIND,7672976,NaN,complete,NaN,NaN,computer,Desktop or Laptop,Windows 10,Chrome 108.0.0.0,1920x1080,1920x1080,End of Day 1,SLS,90,B,NaN,NaN,NaN,Pass,End of Day 1,Pass,NaN,Pass,NaN,Pass,schedule_B,schedule_B,33,16,3,offer,Zone2,response_button_image,2101,NaN,NaN,greenBox.png,1,0,1,0,NaN,NaN,NaN,NaN,NaN,trial_left,blueBox.png,greenBox.png,blueBox.png,al2_uncon.png,63,32,NaN,NaN,0.85,0.85,1,0,0,0,Volatile,Volatile,2.739,1.13,0.815,1.387,inexpert
162,1671117877312,15/12/2022 15:24:37,1671117880293,0,15/12/2022 15:24:40,109680,37,task-rbyw,repeat-u7ds#1->-repeat-l3h2#1,25974544,BLIND,7672976,NaN,complete,NaN,NaN,computer,Desktop or Laptop,Windows 10,Chrome 108.0.0.0,1920x1080,1920x1080,End of Day 1,SLS,90,B,NaN,NaN,NaN,Pass,End of Day 1,Pass,NaN,Pass,NaN,Pass,schedule_B,schedule_B,33,16,4,feedback_l,Zone7,timelimit_screen,1999.986,NaN,NaN,,NaN,0,1,0,NaN,NaN,1,NaN,NaN,trial_left,blueBox.png,greenBox.png,blueBox.png,al2_uncon.png,63,32,NaN,NaN,0.85,0.85,1,0,0,0,Volatile,Volatile,2.739,1.13,0.815,1.387,inexpert
163,1671117877453,15/12/2022 15:24:37,1671117880443,0,15/12/2022 15:24:40,109680,37,task-rbyw,repeat-u7ds#1->-repeat-l3h2#1,25974544,BLIND,7672976,NaN,complete,NaN,NaN,computer,Desktop or Laptop,Windows 10,Chrome 108.0.0.0,1920x1080,1920x1080,End of Day 1,SLS,90,B,NaN,NaN,NaN,Pass,End of Day 1,Pass,NaN,Pass,NaN,Pass,schedule_B,schedule_B,33,16,6,end,Zone1,timelimit_screen,149.958999999973,NaN,NaN,,NaN,0,1,0,NaN,NaN,1,NaN,NaN,trial_left,blueBox.png,greenBox.png,blueBox.png,al2_uncon.png,63,32,NaN,NaN,0.85,0.85,1,0,0,0,Volatile,Volatile,2.739,1.13,0.815,1.387,inexpert
164,1671117880075,15/12/2022 15:24:40,1671117883068,0,15/12/2022 15:24:43,109680,37,task-rbyw,repeat-u7ds#1->-repeat-l3h2#1,25974544,BLIND,7672976,NaN,complete,NaN,NaN,computer,Desktop or Laptop,Windows 10,Chrome 108.0.0.0,1920x1080,1920x1080,End of Day 1,SLS,90,B,NaN,NaN,NaN,Pass,End of Day 1,Pass,NaN,Pass,NaN,Pass,schedule_B,schedule_B,34,17,1,Screen 1,Zone1,continue_button,2615.5,NaN,NaN,,NaN,0,1,0,NaN,NaN,NaN,NaN,NaN,trial_left,blueBox.png,blueBox.png,greenBox.png,al2_uncon.png,64,33,NaN,NaN,0.85,0.85,1,1,1,1,Volatile,Volatile,3.672,0.828,0.513,2.059,inexpert
165,1671117881077,15/12/2022 15:24:41,1671117884060,0,15/12/2022 15:24:44,109680,37,task-rbyw,repeat-u7ds#1->-repeat-l3h2#1,25974544,BLIND,7672976,NaN,complete,NaN,NaN,computer,Desktop or Laptop,Windows 10,Chrome 108.0.0.0,1920x1080,1920x1080,End of Day 1,SLS,90,B,NaN,NaN,NaN,Pass,End of Day 1,Pass,NaN,Pass,NaN,Pass,schedule_B,schedule_B,34,17,2,individual,Zone4,timelimit_screen,1000.019,NaN,NaN,,NaN,0,1,0,NaN,NaN,1,NaN,NaN,trial_left,blueBox.png,blueBox.png,greenBox.png,al2_uncon.png,64,33,NaN,NaN,0.85,0.85,1,1,1,1,Volatile,Volatile,3.672,0.828,0.513,2.059,inexpert
166,1671117883325,15/12/2022 15:24:43,1671117886309,0,15/12/2022 15:24:46,109680,37,task-rbyw,repeat-u7ds#1->-repeat-l3h2#1,25974544,BLIND,7672976,NaN,complete,NaN,NaN,computer,Desktop or Laptop,Windows 10,Chrome 108.0.0.0,1920x1080,1920x1080,End of Day 1,SLS,90,B,NaN,NaN,NaN,Pass,End of Day 1,Pass,NaN,Pass,NaN,Pass,schedule_B,schedule_B,34,17,3,offer,bluebox,response_button_image,2243.39999997616,NaN,NaN,greenBox.png,1,0,1,0,NaN,NaN,NaN,NaN,NaN,trial_left,blueBox.png,blueBox.png,greenBox.png,al2_uncon.png,64,33,NaN,NaN,0.85,0.85,1,1,1,1,Volatile,Volatile,3.672,0.828,0.513,2.059,inexpert
167,1671117885311,15/12/2022 15:24:45,1671117888293,0,15/12/2022 15:24:48,109680,37,task-rbyw,repeat-u7ds#1->-repeat-l3h2#1,25974544,BLIND,7672976,NaN,complete,NaN,NaN,computer,Desktop or Laptop,Windows 10,Chrome 108.0.0.0,1920x1080,1920x1080,End of Day 1,SLS,90,B,NaN,NaN,NaN,Pass,End of Day 1,Pass,NaN,Pass,NaN,Pass,schedule_B,schedule_B,34,17,5,feedback_r,Zone7,timelimit_screen,1999.932,NaN,NaN,,NaN,0,1,0,NaN,NaN,1,NaN,NaN,trial_left,blueBox.png,blueBox.png,greenBox.png,al2_uncon.png,64,33,NaN,NaN,0.85,0.85,1,1,1,1,Volatile,Volatile,3.672,0.828,0.513,2.059,inexpert
168,1671117885460,15/12/2022 15:24:45,1671117888443,0,15/12/2022 15:24:48,109680,37,task-rbyw,repeat-u7ds#1->-repeat-l3h2#1,25974544,BLIND,7672976,NaN,complete,NaN,NaN,computer,Desktop or Laptop,Windows 10,Chrome 108.0.0.0,1920x1080,1920x1080,End of Day 1,SLS,90,B,NaN,NaN,NaN,Pass,End of Day 1,Pass,NaN,Pass,NaN,Pass,schedule_B,schedule_B,34,17,6,end,Zone1,timelimit_screen,149.997999999992,NaN,NaN,,NaN,0,1,0,NaN,NaN,1,NaN,NaN,trial_left,blueBox.png,blueBox.png,greenBox.png,al2_uncon.png,64,33,NaN,NaN,0.85,0.85,1,1,1,1,Volatile,Volatile,3.672,0.828,0.513,2.059,inexpert
169,1671117886437,15/12/2022 15:24:46,1671117889429,0,15/12/2022 15:24:49,109680,37,task-rbyw,repeat-u7ds#1->-repeat-l3h2#1,25974544,BLIND,7672976,NaN,complete,NaN,NaN,computer,Desktop or Laptop,Windows 10,Chrome 108.0.0.0,1920x1080,1920x1080,End of Day 1,SLS,90,B,NaN,NaN,NaN,Pass,End of Day 1,Pass,NaN,Pass,NaN,Pass,schedule_B,schedule_B,35,18,1,Screen 1,Zone1,continue_button,971.40000000596,NaN,NaN,,NaN,0,1,0,NaN,NaN,NaN,NaN,NaN,trial_left,blueBox.png,blueBox.png,greenBox.png,al2_uncon.png,65,34,NaN,NaN,0.85,0.85,1,1,1,1,Volatile,Volatile,2.261,0.866,1.811,2.849,inexpert
170,1671117887446,15/12/2022 15:24:47,1671117890426,0,15/12/2022 15:24:50,109680,37,task-rbyw,repeat-u7ds#1->-repeat-l3h2#1,25974544,BLIND,7672976,NaN,complete,NaN,NaN,computer,Desktop or Laptop,Windows 10,Chrome 108.0.0.0,1920x1080,1920x1080,End of Day 1,SLS,90,B,NaN,NaN,NaN,Pass,End of Day 1,Pass,NaN,Pass,NaN,Pass,schedule_B,schedule_B,35,18,2,individual,Zone4,timelimit_screen,999.982000000018,NaN,NaN,,NaN,0,1,0,NaN,NaN,1,NaN,NaN,trial_left,blueBox.png,blueBox.png,greenBox.png,al2_uncon.png,65,34,NaN,NaN,0.85,0.85,1,1,1,1,Volatile,Volatile,2.261,0.866,1.811,2.849,inexpert
171,1671117889156,15/12/2022 15:24:49,1671117892133,0,15/12/2022 15:24:52,109680,37,task-rbyw,repeat-u7ds#1->-repeat-l3h2#1,25974544,BLIND,7672976,NaN,complete,NaN,NaN,computer,Desktop or Laptop,Windows 10,Chrome 108.0.0.0,1920x1080,1920x1080,End of Day 1,SLS,90,B,NaN,NaN,NaN,Pass,End of Day 1,Pass,NaN,Pass,NaN,Pass,schedule_B,schedule_B,35,18,3,offer,Zone2,response_button_image,1701.70000001788,NaN,NaN,blueBox.png,1,1,0,0,NaN,NaN,NaN,NaN,NaN,trial_left,blueBox.png,blueBox.png,greenBox.png,al2_uncon.png,65,34,NaN,NaN,0.85,0.85,1,1,1,1,Volatile,Volatile,2.261,0.866,1.811,2.849,inexpert
172,1671117891150,15/12/2022 15:24:51,1671117894126,0,15/12/2022 15:24:54,109680,37,task-rbyw,repeat-u7ds#1->-repeat-l3h2#1,25974544,BLIND,7672976,NaN,complete,NaN,NaN,computer,Desktop or Laptop,Windows 10,Chrome 108.0.0.0,1920x1080,1920x1080,End of Day 1,SLS,90,B,NaN,NaN,NaN,Pass,End of Day 1,Pass,NaN,Pass,NaN,Pass,schedule_B,schedule_B,35,18,4,feedback_l,Zone7,timelimit_screen,1999.95799999998,NaN,NaN,,NaN,0,1,0,NaN,NaN,1,NaN,NaN,trial_left,blueBox.png,blueBox.png,greenBox.png,al2_uncon.png,65,34,NaN,NaN,0.85,0.85,1,1,1,1,Volatile,Volatile,2.261,0.866,1.811,2.849,inexpert
