EventIndex,UTCTimestamp,UTCDate,LocalTimestamp,LocalTimezone,LocalDate,ExperimentID,ExperimentVersion,TreeNodeKey,RepeatKey,ScheduleID,ParticipantPublicID,ParticipantPrivateID,ParticipantStartingGroup,ParticipantStatus,ParticipantCompletionCode,ParticipantExternalSessionID,ParticipantDeviceType,ParticipantDevice,ParticipantOS,ParticipantBrowser,ParticipantMonitorSize,ParticipantViewportSize,Checkpoint,TaskName,TaskVersion,randomiser_6z9f,branch_kxy7,checkpoint_tqwf,branch_rtog,branch_7dgx,checkpoint_mqen,branch_yx2c,branch_3n8o,branch_f1s6,branch_x6l7,branch_21hs,Spreadsheet,SpreadsheetName,SpreadsheetRow,TrialNumber,ScreenNumber,ScreenName,ZoneName,ZoneType,ReactionTime,ReactionOnset,ResponseType,Response,Attempt,Correct,Incorrect,Dishonest,XCoordinate,YCoordinate,TimedOut,randomise_blocks,randomise_trials,display,ANSWER,left_button,right_button,advice,orderno,trialno,ShowProgressBar,image,prob_blue_corr,prob_group_corr,corr_ans,group_corr,group_choice,blue_pos,indiv_vol,soc_vol,ITI_1,ITI_2,ITI_3,ITI_4,condition
1,1671191340249,16/12/2022 11:49:00,1671191343024,0,16/12/2022 11:49:03,109680,37,task-v1fs,repeat-u7ds#1->-repeat-l3h2#1->-repeat-pi7a#1->-repeat-apgu#1,25989827,BLIND,7672976,NaN,complete,NaN,NaN,computer,Desktop or Laptop,Windows 10,Chrome 108.0.0.0,1920x1080,1920x1080,End of Day 1,SLS,90,B,NaN,NaN,NaN,Pass,End of Day 1,Pass,NaN,Pass,NaN,Pass,schedule_A,,NaN,NaN,NaN,,,,NaN,NaN,NaN,,NaN,0,1,0,NaN,NaN,NaN,NaN,NaN,,,,,,NaN,NaN,NaN,NaN,NaN,NaN,NaN,NaN,NaN,NaN,,,NaN,NaN,NaN,NaN,
2,1671191342140,16/12/2022 11:49:02,1671191344944,0,16/12/2022 11:49:04,109680,37,task-v1fs,repeat-u7ds#1->-repeat-l3h2#1->-repeat-pi7a#1->-repeat-apgu#1,25989827,BLIND,7672976,NaN,complete,NaN,NaN,computer,Desktop or Laptop,Windows 10,Chrome 108.0.0.0,1920x1080,1920x1080,End of Day 1,SLS,90,B,NaN,NaN,NaN,Pass,End of Day 1,Pass,NaN,Pass,NaN,Pass,schedule_A,schedule_A,1,1,1,Screen 1,Zone1,continue_button,1688.39999999851,NaN,NaN,,NaN,0,1,0,NaN,NaN,NaN,NaN,NaN,getReady,,,,,1,NaN,NaN,NaN,NaN,NaN,NaN,NaN,NaN,NaN,,,NaN,NaN,NaN,NaN,
3,1671191343635,16/12/2022 11:49:03,1671191346448,0,16/12/2022 11:49:06,109680,37,task-v1fs,repeat-u7ds#1->-repeat-l3h2#1->-repeat-pi7a#1->-repeat-apgu#1,25989827,BLIND,7672976,NaN,complete,NaN,NaN,computer,Desktop or Laptop,Windows 10,Chrome 108.0.0.0,1920x1080,1920x1080,End of Day 1,SLS,90,B,NaN,NaN,NaN,Pass,End of Day 1,Pass,NaN,Pass,NaN,Pass,schedule_A,schedule_A,1,1,2,Screen 2,Zone1,continue_button,1499.70000000298,NaN,NaN,,NaN,0,1,0,NaN,NaN,NaN,NaN,NaN,getReady,,,,,1,NaN,NaN,NaN,NaN,NaN,NaN,NaN,NaN,NaN,,,NaN,NaN,NaN,NaN,
4,1671191345147,16/12/2022 11:49:05,1671191347960,0,16/12/2022 11:49:07,109680,37,task-v1fs,repeat-u7ds#1->-repeat-l3h2#1->-repeat-pi7a#1->-repeat-apgu#1,25989827,BLIND,7672976,NaN,complete,NaN,NaN,computer,Desktop or Laptop,Windows 10,Chrome 108.0.0.0,1920x1080,1920x1080,End of Day 1,SLS,90,B,NaN,NaN,NaN,Pass,End of Day 1,Pass,NaN,Pass,NaN,Pass,schedule_A,schedule_A,2,1,1,Screen 1,Zone1,continue_button,1495.60000000149,NaN,NaN,,NaN,0,1,0,NaN,NaN,NaN,NaN,NaN,trial_right,redBox.png,yellowBox.png,redBox.png,al1_con.png,2,1,NaN,NaN,0.85,0.85,1,1,1,0,Volatile,Stable,3.471,0.525,1.66,2.529,expert
5,1671191346133,16/12/2022 11:49:06,1671191348945,0,16/12/2022 11:49:08,109680,37,task-v1fs,repeat-u7ds#1->-repeat-l3h2#1->-repeat-pi7a#1->-repeat-apgu#1,25989827,BLIND,7672976,NaN,complete,NaN,NaN,computer,Desktop or Laptop,Windows 10,Chrome 108.0.0.0,1920x1080,1920x1080,End of Day 1,SLS,90,B,NaN,NaN,NaN,Pass,End of Day 1,Pass,NaN,Pass,NaN,Pass,schedule_A,schedule_A,2,1,2,individual,Zone4,timelimit_screen,999.972,NaN,NaN,,NaN,0,1,0,NaN,NaN,1,NaN,NaN,trial_right,redBox.png,yellowBox.png,redBox.png,al1_con.png,2,1,NaN,NaN,0.85,0.85,1,1,1,0,Volatile,Stable,3.471,0.525,1.66,2.529,expert
6,1671191347465,16/12/2022 11:49:07,1671191350280,0,16/12/2022 11:49:10,109680,37,task-v1fs,repeat-u7ds#1->-repeat-l3h2#1->-repeat-pi7a#1->-repeat-apgu#1,25989827,BLIND,7672976,NaN,complete,NaN,NaN,computer,Desktop or Laptop,Windows 10,Chrome 108.0.0.0,1920x1080,1920x1080,End of Day 1,SLS,90,B,NaN,NaN,NaN,Pass,End of Day 1,Pass,NaN,Pass,NaN,Pass,schedule_A,schedule_A,2,1,3,offer,Zone2,response_button_image,1328.30000000447,NaN,NaN,yellowBox.png,1,0,1,0,NaN,NaN,NaN,NaN,NaN,trial_right,redBox.png,yellowBox.png,redBox.png,al1_con.png,2,1,NaN,NaN,0.85,0.85,1,1,1,0,Volatile,Stable,3.471,0.525,1.66,2.529,expert
7,1671191349463,16/12/2022 11:49:09,1671191352278,0,16/12/2022 11:49:12,109680,37,task-v1fs,repeat-u7ds#1->-repeat-l3h2#1->-repeat-pi7a#1->-repeat-apgu#1,25989827,BLIND,7672976,NaN,complete,NaN,NaN,computer,Desktop or Laptop,Windows 10,Chrome 108.0.0.0,1920x1080,1920x1080,End of Day 1,SLS,90,B,NaN,NaN,NaN,Pass,End of Day 1,Pass,NaN,Pass,NaN,Pass,schedule_A,schedule_A,2,1,4,feedback_l,Zone7,timelimit_screen,1999.953,NaN,NaN,,NaN,0,1,0,NaN,NaN,1,NaN,NaN,trial_right,redBox.png,yellowBox.png,redBox.png,al1_con.png,2,1,NaN,NaN,0.85,0.85,1,1,1,0,Volatile,Stable,3.471,0.525,1.66,2.529,expert
8,1671191349617,16/12/2022 11:49:09,1671191352428,0,16/12/2022 11:49:12,109680,37,task-v1fs,repeat-u7ds#1->-repeat-l3h2#1->-repeat-pi7a#1->-repeat-apgu#1,25989827,BLIND,7672976,NaN,complete,NaN,NaN,computer,Desktop or Laptop,Windows 10,Chrome 108.0.0.0,1920x1080,1920x1080,End of Day 1,SLS,90,B,NaN,NaN,NaN,Pass,End of Day 1,Pass,NaN,Pass,NaN,Pass,schedule_A,schedule_A,2,1,6,end,Zone1,timelimit_screen,150.067000000001,NaN,NaN,,NaN,0,1,0,NaN,NaN,1,NaN,NaN,trial_right,redBox.png,yellowBox.png,redBox.png,al1_con.png,2,1,NaN,NaN,0.85,0.85,1,1,1,0,Volatile,Stable,3.471,0.525,1.66,2.529,expert
9,1671191350765,16/12/2022 11:49:10,1671191353584,0,16/12/2022 11:49:13,109680,37,task-v1fs,repeat-u7ds#1->-repeat-l3h2#1->-repeat-pi7a#1->-repeat-apgu#1,25989827,BLIND,7672976,NaN,complete,NaN,NaN,computer,Desktop or Laptop,Windows 10,Chrome 108.0.0.0,1920x1080,1920x1080,End of Day 1,SLS,90,B,NaN,NaN,NaN,Pass,End of Day 1,Pass,NaN,Pass,NaN,Pass,schedule_A,schedule_A,3,1,1,Screen 1,Zone1,continue_button,1145.5,NaN,NaN,,NaN,0,1,0,NaN,NaN,NaN,NaN,NaN,trial_left,redBox.png,redBox.png,yellowBox.png,al1_con.png,3,2,NaN,NaN,0.85,0.85,1,1,1,1,Volatile,Stable,1.782,1.168,1.168,2.462,expert
10,1671191351782,16/12/2022 11:49:11,1671191354578,0,16/12/2022 11:49:14,109680,37,task-v1fs,repeat-u7ds#1->-repeat-l3h2#1->-repeat-pi7a#1->-repeat-apgu#1,25989827,BLIND,7672976,NaN,complete,NaN,NaN,computer,Desktop or Laptop,Windows 10,Chrome 108.0.0.0,1920x1080,1920x1080,End of Day 1,SLS,90,B,NaN,NaN,NaN,Pass,End of Day 1,Pass,NaN,Pass,NaN,Pass,schedule_A,schedule_A,3,1,2,individual,Zone4,timelimit_screen,999.928,NaN,NaN,,NaN,0,1,0,NaN,NaN,1,NaN,NaN,trial_left,redBox.png,redBox.png,yellowBox.png,al1_con.png,3,2,NaN,NaN,0.85,0.85,1,1,1,1,Volatile,Stable,1.782,1.168,1.168,2.462,expert
11,1671191352570,16/12/2022 11:49:12,1671191355361,0,16/12/2022 11:49:15,109680,37,task-v1fs,repeat-u7ds#1->-repeat-l3h2#1->-repeat-pi7a#1->-repeat-apgu#1,25989827,BLIND,7672976,NaN,complete,NaN,NaN,computer,Desktop or Laptop,Windows 10,Chrome 108.0.0.0,1920x1080,1920x1080,End of Day 1,SLS,90,B,NaN,NaN,NaN,Pass,End of Day 1,Pass,NaN,Pass,NaN,Pass,schedule_A,schedule_A,3,1,3,offer,Zone2,response_button_image,776.39999999851,NaN,NaN,redBox.png,1,1,0,0,NaN,NaN,NaN,NaN,NaN,trial_left,redBox.png,redBox.png,yellowBox.png,al1_con.png,3,2,NaN,NaN,0.85,0.85,1,1,1,1,Volatile,Stable,1.782,1.168,1.168,2.462,expert
12,1671191354539,16/12/2022 11:49:14,1671191357345,0,16/12/2022 11:49:17,109680,37,task-v1fs,repeat-u7ds#1->-repeat-l3h2#1->-repeat-pi7a#1->-repeat-apgu#1,25989827,BLIND,7672976,NaN,complete,NaN,NaN,computer,Desktop or Laptop,Windows 10,Chrome 108.0.0.0,1920x1080,1920x1080,End of Day 1,SLS,90,B,NaN,NaN,NaN,Pass,End of Day 1,Pass,NaN,Pass,NaN,Pass,schedule_A,schedule_A,3,1,4,feedback_l,Zone7,timelimit_screen,1999.956,NaN,NaN,,NaN,0,1,0,NaN,NaN,1,NaN,NaN,trial_left,redBox.png,redBox.png,yellowBox.png,al1_con.png,3,2,NaN,NaN,0.85,0.85,1,1,1,1,Volatile,Stable,1.782,1.168,1.168,2.462,expert
13,1671191354678,16/12/2022 11:49:14,1671191357495,0,16/12/2022 11:49:17,109680,37,task-v1fs,repeat-u7ds#1->-repeat-l3h2#1->-repeat-pi7a#1->-repeat-apgu#1,25989827,BLIND,7672976,NaN,complete,NaN,NaN,computer,Desktop or Laptop,Windows 10,Chrome 108.0.0.0,1920x1080,1920x1080,End of Day 1,SLS,90,B,NaN,NaN,NaN,Pass,End of Day 1,Pass,NaN,Pass,NaN,Pass,schedule_A,schedule_A,3,1,6,end,Zone1,timelimit_screen,150.014999999999,NaN,NaN,,NaN,0,1,0,NaN,NaN,1,NaN,NaN,trial_left,redBox.png,redBox.png,yellowBox.png,al1_con.png,3,2,NaN,NaN,0.85,0.85,1,1,1,1,Volatile,Stable,1.782,1.168,1.168,2.462,expert
14,1671191355475,16/12/2022 11:49:15,1671191358289,0,16/12/2022 11:49:18,109680,37,task-v1fs,repeat-u7ds#1->-repeat-l3h2#1->-repeat-pi7a#1->-repeat-apgu#1,25989827,BLIND,7672976,NaN,complete,NaN,NaN,computer,Desktop or Laptop,Windows 10,Chrome 108.0.0.0,1920x1080,1920x1080,End of Day 1,SLS,90,B,NaN,NaN,NaN,Pass,End of Day 1,Pass,NaN,Pass,NaN,Pass,schedule_A,schedule_A,4,2,1,Screen 1,Zone1,continue_button,780.39999999851,NaN,NaN,,NaN,0,1,0,NaN,NaN,NaN,NaN,NaN,trial_right,redBox.png,yellowBox.png,redBox.png,al1_con.png,4,3,NaN,NaN,0.85,0.85,1,1,1,0,Volatile,Stable,1.983,1.181,0.538,1.588,expert
15,1671191356456,16/12/2022 11:49:16,1671191359278,0,16/12/2022 11:49:19,109680,37,task-v1fs,repeat-u7ds#1->-repeat-l3h2#1->-repeat-pi7a#1->-repeat-apgu#1,25989827,BLIND,7672976,NaN,complete,NaN,NaN,computer,Desktop or Laptop,Windows 10,Chrome 108.0.0.0,1920x1080,1920x1080,End of Day 1,SLS,90,B,NaN,NaN,NaN,Pass,End of Day 1,Pass,NaN,Pass,NaN,Pass,schedule_A,schedule_A,4,2,2,individual,Zone4,timelimit_screen,999.957,NaN,NaN,,NaN,0,1,0,NaN,NaN,1,NaN,NaN,trial_right,redBox.png,yellowBox.png,redBox.png,al1_con.png,4,3,NaN,NaN,0.85,0.85,1,1,1,0,Volatile,Stable,1.983,1.181,0.538,1.588,expert
16,1671191357151,16/12/2022 11:49:17,1671191359969,0,16/12/2022 11:49:19,109680,37,task-v1fs,repeat-u7ds#1->-repeat-l3h2#1->-repeat-pi7a#1->-repeat-apgu#1,25989827,BLIND,7672976,NaN,complete,NaN,NaN,computer,Desktop or Laptop,Windows 10,Chrome 108.0.0.0,1920x1080,1920x1080,End of Day 1,SLS,90,B,NaN,NaN,NaN,Pass,End of Day 1,Pass,NaN,Pass,NaN,Pass,schedule_A,schedule_A,4,2,3,offer,Zone3,response_button_image,684.89999999851,NaN,NaN,redBox.png,1,1,0,0,NaN,NaN,NaN,NaN,NaN,trial_right,redBox.png,yellowBox.png,redBox.png,al1_con.png,4,3,NaN,NaN,0.85,0.85,1,1,1,0,Volatile,Stable,1.983,1.181,0.538,1.588,expert
17,1671191359140,16/12/2022 11:49:19,1671191361961,0,16/12/2022 11:49:21,109680,37,task-v1fs,repeat-u7ds#1->-repeat-l3h2#1->-repeat-pi7a#1->-repeat-apgu#1,25989827,BLIND,7672976,NaN,complete,NaN,NaN,computer,Desktop or Laptop,Windows 10,Chrome 108.0.0.0,1920x1080,1920x1080,End of Day 1,SLS,90,B,NaN,NaN,NaN,Pass,End of Day 1,Pass,NaN,Pass,NaN,Pass,schedule_A,schedule_A,4,2,5,feedback_r,Zone7,timelimit_screen,1999.961,NaN,NaN,,NaN,0,1,0,NaN,NaN,1,NaN,NaN,trial_right,redBox.png,yellowBox.png,redBox.png,al1_con.png,4,3,NaN,NaN,0.85,0.85,1,1,1,0,Volatile,Stable,1.983,1.181,0.538,1.588,expert
18,1671191359298,16/12/2022 11:49:19,1671191362111,0,16/12/2022 11:49:22,109680,37,task-v1fs,repeat-u7ds#1->-repeat-l3h2#1->-repeat-pi7a#1->-repeat-apgu#1,25989827,BLIND,7672976,NaN,complete,NaN,NaN,computer,Desktop or Laptop,Windows 10,Chrome 108.0.0.0,1920x1080,1920x1080,End of Day 1,SLS,90,B,NaN,NaN,NaN,Pass,End of Day 1,Pass,NaN,Pass,NaN,Pass,schedule_A,schedule_A,4,2,6,end,Zone1,timelimit_screen,150.019999999997,NaN,NaN,,NaN,0,1,0,NaN,NaN,1,NaN,NaN,trial_right,redBox.png,yellowBox.png,redBox.png,al1_con.png,4,3,NaN,NaN,0.85,0.85,1,1,1,0,Volatile,Stable,1.983,1.181,0.538,1.588,expert
19,1671191360296,16/12/2022 11:49:20,1671191363114,0,16/12/2022 11:49:23,109680,37,task-v1fs,repeat-u7ds#1->-repeat-l3h2#1->-repeat-pi7a#1->-repeat-apgu#1,25989827,BLIND,7672976,NaN,complete,NaN,NaN,computer,Desktop or Laptop,Windows 10,Chrome 108.0.0.0,1920x1080,1920x1080,End of Day 1,SLS,90,B,NaN,NaN,NaN,Pass,End of Day 1,Pass,NaN,Pass,NaN,Pass,schedule_A,schedule_A,5,3,1,Screen 1,Zone1,continue_button,989.69999999553,NaN,NaN,,NaN,0,1,0,NaN,NaN,NaN,NaN,NaN,trial_right,redBox.png,yellowBox.png,redBox.png,al1_con.png,5,4,NaN,NaN,0.85,0.85,1,1,1,0,Volatile,Stable,1.529,0.891,1.004,1,expert
20,1671191361294,16/12/2022 11:49:21,1671191364111,0,16/12/2022 11:49:24,109680,37,task-v1fs,repeat-u7ds#1->-repeat-l3h2#1->-repeat-pi7a#1->-repeat-apgu#1,25989827,BLIND,7672976,NaN,complete,NaN,NaN,computer,Desktop or Laptop,Windows 10,Chrome 108.0.0.0,1920x1080,1920x1080,End of Day 1,SLS,90,B,NaN,NaN,NaN,Pass,End of Day 1,Pass,NaN,Pass,NaN,Pass,schedule_A,schedule_A,5,3,2,individual,Zone4,timelimit_screen,999.931,NaN,NaN,,NaN,0,1,0,NaN,NaN,1,NaN,NaN,trial_right,redBox.png,yellowBox.png,redBox.png,al1_con.png,5,4,NaN,NaN,0.85,0.85,1,1,1,0,Volatile,Stable,1.529,0.891,1.004,1,expert
21,1671191361914,16/12/2022 11:49:21,1671191364730,0,16/12/2022 11:49:24,109680,37,task-v1fs,repeat-u7ds#1->-repeat-l3h2#1->-repeat-pi7a#1->-repeat-apgu#1,25989827,BLIND,7672976,NaN,complete,NaN,NaN,computer,Desktop or Laptop,Windows 10,Chrome 108.0.0.0,1920x1080,1920x1080,End of Day 1,SLS,90,B,NaN,NaN,NaN,Pass,End of Day 1,Pass,NaN,Pass,NaN,Pass,schedule_A,schedule_A,5,3,3,offer,Zone3,response_button_image,612.5,NaN,NaN,redBox.png,1,1,0,0,NaN,NaN,NaN,NaN,NaN,trial_right,redBox.png,yellowBox.png,redBox.png,al1_con.png,5,4,NaN,NaN,0.85,0.85,1,1,1,0,Volatile,Stable,1.529,0.891,1.004,1,expert
22,1671191363907,16/12/2022 11:49:23,1671191366728,0,16/12/2022 11:49:26,109680,37,task-v1fs,repeat-u7ds#1->-repeat-l3h2#1->-repeat-pi7a#1->-repeat-apgu#1,25989827,BLIND,7672976,NaN,complete,NaN,NaN,computer,Desktop or Laptop,Windows 10,Chrome 108.0.0.0,1920x1080,1920x1080,End of Day 1,SLS,90,B,NaN,NaN,NaN,Pass,End of Day 1,Pass,NaN,Pass,NaN,Pass,schedule_A,schedule_A,5,3,5,feedback_r,Zone7,timelimit_screen,1999.958,NaN,NaN,,NaN,0,1,0,NaN,NaN,1,NaN,NaN,trial_right,redBox.png,yellowBox.png,redBox.png,al1_con.png,5,4,NaN,NaN,0.85,0.85,1,1,1,0,Volatile,Stable,1.529,0.891,1.004,1,expert
23,1671191364068,16/12/2022 11:49:24,1671191366878,0,16/12/2022 11:49:26,109680,37,task-v1fs,repeat-u7ds#1->-repeat-l3h2#1->-repeat-pi7a#1->-repeat-apgu#1,25989827,BLIND,7672976,NaN,complete,NaN,NaN,computer,Desktop or Laptop,Windows 10,Chrome 108.0.0.0,1920x1080,1920x1080,End of Day 1,SLS,90,B,NaN,NaN,NaN,Pass,End of Day 1,Pass,NaN,Pass,NaN,Pass,schedule_A,schedule_A,5,3,6,end,Zone1,timelimit_screen,149.994999999999,NaN,NaN,,NaN,0,1,0,NaN,NaN,1,NaN,NaN,trial_right,redBox.png,yellowBox.png,redBox.png,al1_con.png,5,4,NaN,NaN,0.85,0.85,1,1,1,0,Volatile,Stable,1.529,0.891,1.004,1,expert
24,1671191365012,16/12/2022 11:49:25,1671191367827,0,16/12/2022 11:49:27,109680,37,task-v1fs,repeat-u7ds#1->-repeat-l3h2#1->-repeat-pi7a#1->-repeat-apgu#1,25989827,BLIND,7672976,NaN,complete,NaN,NaN,computer,Desktop or Laptop,Windows 10,Chrome 108.0.0.0,1920x1080,1920x1080,End of Day 1,SLS,90,B,NaN,NaN,NaN,Pass,End of Day 1,Pass,NaN,Pass,NaN,Pass,schedule_A,schedule_A,6,2,1,Screen 1,Zone1,continue_button,935.29999999702,NaN,NaN,,NaN,0,1,0,NaN,NaN,NaN,NaN,NaN,trial_left,redBox.png,redBox.png,yellowBox.png,al1_con.png,6,5,NaN,NaN,0.85,0.85,1,1,1,1,Volatile,Stable,1.832,1.118,0.752,1.79,expert
25,1671191365992,16/12/2022 11:49:25,1671191368812,0,16/12/2022 11:49:28,109680,37,task-v1fs,repeat-u7ds#1->-repeat-l3h2#1->-repeat-pi7a#1->-repeat-apgu#1,25989827,BLIND,7672976,NaN,complete,NaN,NaN,computer,Desktop or Laptop,Windows 10,Chrome 108.0.0.0,1920x1080,1920x1080,End of Day 1,SLS,90,B,NaN,NaN,NaN,Pass,End of Day 1,Pass,NaN,Pass,NaN,Pass,schedule_A,schedule_A,6,2,2,individual,Zone4,timelimit_screen,999.972000000002,NaN,NaN,,NaN,0,1,0,NaN,NaN,1,NaN,NaN,trial_left,redBox.png,redBox.png,yellowBox.png,al1_con.png,6,5,NaN,NaN,0.85,0.85,1,1,1,1,Volatile,Stable,1.832,1.118,0.752,1.79,expert
26,1671191366661,16/12/2022 11:49:26,1671191369483,0,16/12/2022 11:49:29,109680,37,task-v1fs,repeat-u7ds#1->-repeat-l3h2#1->-repeat-pi7a#1->-repeat-apgu#1,25989827,BLIND,7672976,NaN,complete,NaN,NaN,computer,Desktop or Laptop,Windows 10,Chrome 108.0.0.0,1920x1080,1920x1080,End of Day 1,SLS,90,B,NaN,NaN,NaN,Pass,End of Day 1,Pass,NaN,Pass,NaN,Pass,schedule_A,schedule_A,6,2,3,offer,Zone2,response_button_image,665,NaN,NaN,redBox.png,1,1,0,0,NaN,NaN,NaN,NaN,NaN,trial_left,redBox.png,redBox.png,yellowBox.png,al1_con.png,6,5,NaN,NaN,0.85,0.85,1,1,1,1,Volatile,Stable,1.832,1.118,0.752,1.79,expert
27,1671191368663,16/12/2022 11:49:28,1671191371478,0,16/12/2022 11:49:31,109680,37,task-v1fs,repeat-u7ds#1->-repeat-l3h2#1->-repeat-pi7a#1->-repeat-apgu#1,25989827,BLIND,7672976,NaN,complete,NaN,NaN,computer,Desktop or Laptop,Windows 10,Chrome 108.0.0.0,1920x1080,1920x1080,End of Day 1,SLS,90,B,NaN,NaN,NaN,Pass,End of Day 1,Pass,NaN,Pass,NaN,Pass,schedule_A,schedule_A,6,2,4,feedback_l,Zone7,timelimit_screen,1999.963,NaN,NaN,,NaN,0,1,0,NaN,NaN,1,NaN,NaN,trial_left,redBox.png,redBox.png,yellowBox.png,al1_con.png,6,5,NaN,NaN,0.85,0.85,1,1,1,1,Volatile,Stable,1.832,1.118,0.752,1.79,expert
28,1671191368818,16/12/2022 11:49:28,1671191371628,0,16/12/2022 11:49:31,109680,37,task-v1fs,repeat-u7ds#1->-repeat-l3h2#1->-repeat-pi7a#1->-repeat-apgu#1,25989827,BLIND,7672976,NaN,complete,NaN,NaN,computer,Desktop or Laptop,Windows 10,Chrome 108.0.0.0,1920x1080,1920x1080,End of Day 1,SLS,90,B,NaN,NaN,NaN,Pass,End of Day 1,Pass,NaN,Pass,NaN,Pass,schedule_A,schedule_A,6,2,6,end,Zone1,timelimit_screen,150.019,NaN,NaN,,NaN,0,1,0,NaN,NaN,1,NaN,NaN,trial_left,redBox.png,redBox.png,yellowBox.png,al1_con.png,6,5,NaN,NaN,0.85,0.85,1,1,1,1,Volatile,Stable,1.832,1.118,0.752,1.79,expert
29,1671191369687,16/12/2022 11:49:29,1671191372507,0,16/12/2022 11:49:32,109680,37,task-v1fs,repeat-u7ds#1->-repeat-l3h2#1->-repeat-pi7a#1->-repeat-apgu#1,25989827,BLIND,7672976,NaN,complete,NaN,NaN,computer,Desktop or Laptop,Windows 10,Chrome 108.0.0.0,1920x1080,1920x1080,End of Day 1,SLS,90,B,NaN,NaN,NaN,Pass,End of Day 1,Pass,NaN,Pass,NaN,Pass,schedule_A,schedule_A,7,4,1,Screen 1,Zone1,continue_button,867.29999999702,NaN,NaN,,NaN,0,1,0,NaN,NaN,NaN,NaN,NaN,trial_right,yellowBox.png,redBox.png,yellowBox.png,al1_con.png,7,6,NaN,NaN,0.15,0.85,0,1,0,1,Volatile,Stable,3.294,0.815,1.282,2.664,expert
30,1671191370677,16/12/2022 11:49:30,1671191373495,0,16/12/2022 11:49:33,109680,37,task-v1fs,repeat-u7ds#1->-repeat-l3h2#1->-repeat-pi7a#1->-repeat-apgu#1,25989827,BLIND,7672976,NaN,complete,NaN,NaN,computer,Desktop or Laptop,Windows 10,Chrome 108.0.0.0,1920x1080,1920x1080,End of Day 1,SLS,90,B,NaN,NaN,NaN,Pass,End of Day 1,Pass,NaN,Pass,NaN,Pass,schedule_A,schedule_A,7,4,2,individual,Zone4,timelimit_screen,1000.011,NaN,NaN,,NaN,0,1,0,NaN,NaN,1,NaN,NaN,trial_right,yellowBox.png,redBox.png,yellowBox.png,al1_con.png,7,6,NaN,NaN,0.15,0.85,0,1,0,1,Volatile,Stable,3.294,0.815,1.282,2.664,expert
31,1671191372885,16/12/2022 11:49:32,1671191375699,0,16/12/2022 11:49:35,109680,37,task-v1fs,repeat-u7ds#1->-repeat-l3h2#1->-repeat-pi7a#1->-repeat-apgu#1,25989827,BLIND,7672976,NaN,complete,NaN,NaN,computer,Desktop or Laptop,Windows 10,Chrome 108.0.0.0,1920x1080,1920x1080,End of Day 1,SLS,90,B,NaN,NaN,NaN,Pass,End of Day 1,Pass,NaN,Pass,NaN,Pass,schedule_A,schedule_A,7,4,3,offer,Zone3,response_button_image,2198.39999999851,NaN,NaN,yellowBox.png,1,1,0,0,NaN,NaN,NaN,NaN,NaN,trial_right,yellowBox.png,redBox.png,yellowBox.png,al1_con.png,7,6,NaN,NaN,0.15,0.85,0,1,0,1,Volatile,Stable,3.294,0.815,1.282,2.664,expert
32,1671191374879,16/12/2022 11:49:34,1671191377695,0,16/12/2022 11:49:37,109680,37,task-v1fs,repeat-u7ds#1->-repeat-l3h2#1->-repeat-pi7a#1->-repeat-apgu#1,25989827,BLIND,7672976,NaN,complete,NaN,NaN,computer,Desktop or Laptop,Windows 10,Chrome 108.0.0.0,1920x1080,1920x1080,End of Day 1,SLS,90,B,NaN,NaN,NaN,Pass,End of Day 1,Pass,NaN,Pass,NaN,Pass,schedule_A,schedule_A,7,4,5,feedback_r,Zone7,timelimit_screen,1999.956,NaN,NaN,,NaN,0,1,0,NaN,NaN,1,NaN,NaN,trial_right,yellowBox.png,redBox.png,yellowBox.png,al1_con.png,7,6,NaN,NaN,0.15,0.85,0,1,0,1,Volatile,Stable,3.294,0.815,1.282,2.664,expert
33,1671191375032,16/12/2022 11:49:35,1671191377844,0,16/12/2022 11:49:37,109680,37,task-v1fs,repeat-u7ds#1->-repeat-l3h2#1->-repeat-pi7a#1->-repeat-apgu#1,25989827,BLIND,7672976,NaN,complete,NaN,NaN,computer,Desktop or Laptop,Windows 10,Chrome 108.0.0.0,1920x1080,1920x1080,End of Day 1,SLS,90,B,NaN,NaN,NaN,Pass,End of Day 1,Pass,NaN,Pass,NaN,Pass,schedule_A,schedule_A,7,4,6,end,Zone1,timelimit_screen,150.002,NaN,NaN,,NaN,0,1,0,NaN,NaN,1,NaN,NaN,trial_right,yellowBox.png,redBox.png,yellowBox.png,al1_con.png,7,6,NaN,NaN,0.15,0.85,0,1,0,1,Volatile,Stable,3.294,0.815,1.282,2.664,expert
34,1671191376239,16/12/2022 11:49:36,1671191379052,0,16/12/2022 11:49:39,109680,37,task-v1fs,repeat-u7ds#1->-repeat-l3h2#1->-repeat-pi7a#1->-repeat-apgu#1,25989827,BLIND,7672976,NaN,complete,NaN,NaN,computer,Desktop or Laptop,Windows 10,Chrome 108.0.0.0,1920x1080,1920x1080,End of Day 1,SLS,90,B,NaN,NaN,NaN,Pass,End of Day 1,Pass,NaN,Pass,NaN,Pass,schedule_A,schedule_A,8,3,1,Screen 1,Zone1,continue_button,1193.30000000447,NaN,NaN,,NaN,0,1,0,NaN,NaN,NaN,NaN,NaN,trial_left,yellowBox.png,yellowBox.png,redBox.png,al1_con.png,8,7,NaN,NaN,0.15,0.85,0,1,0,0,Volatile,Stable,3.269,1.37,1.786,2.328,expert
35,1671191377229,16/12/2022 11:49:37,1671191380045,0,16/12/2022 11:49:40,109680,37,task-v1fs,repeat-u7ds#1->-repeat-l3h2#1->-repeat-pi7a#1->-repeat-apgu#1,25989827,BLIND,7672976,NaN,complete,NaN,NaN,computer,Desktop or Laptop,Windows 10,Chrome 108.0.0.0,1920x1080,1920x1080,End of Day 1,SLS,90,B,NaN,NaN,NaN,Pass,End of Day 1,Pass,NaN,Pass,NaN,Pass,schedule_A,schedule_A,8,3,2,individual,Zone4,timelimit_screen,999.969000000005,NaN,NaN,,NaN,0,1,0,NaN,NaN,1,NaN,NaN,trial_left,yellowBox.png,yellowBox.png,redBox.png,al1_con.png,8,7,NaN,NaN,0.15,0.85,0,1,0,0,Volatile,Stable,3.269,1.37,1.786,2.328,expert
36,1671191377964,16/12/2022 11:49:37,1671191380780,0,16/12/2022 11:49:40,109680,37,task-v1fs,repeat-u7ds#1->-repeat-l3h2#1->-repeat-pi7a#1->-repeat-apgu#1,25989827,BLIND,7672976,NaN,complete,NaN,NaN,computer,Desktop or Laptop,Windows 10,Chrome 108.0.0.0,1920x1080,1920x1080,End of Day 1,SLS,90,B,NaN,NaN,NaN,Pass,End of Day 1,Pass,NaN,Pass,NaN,Pass,schedule_A,schedule_A,8,3,3,offer,Zone2,response_button_image,729.39999999851,NaN,NaN,yellowBox.png,1,1,0,0,NaN,NaN,NaN,NaN,NaN,trial_left,yellowBox.png,yellowBox.png,redBox.png,al1_con.png,8,7,NaN,NaN,0.15,0.85,0,1,0,0,Volatile,Stable,3.269,1.37,1.786,2.328,expert
37,1671191379973,16/12/2022 11:49:39,1671191382778,0,16/12/2022 11:49:42,109680,37,task-v1fs,repeat-u7ds#1->-repeat-l3h2#1->-repeat-pi7a#1->-repeat-apgu#1,25989827,BLIND,7672976,NaN,complete,NaN,NaN,computer,Desktop or Laptop,Windows 10,Chrome 108.0.0.0,1920x1080,1920x1080,End of Day 1,SLS,90,B,NaN,NaN,NaN,Pass,End of Day 1,Pass,NaN,Pass,NaN,Pass,schedule_A,schedule_A,8,3,4,feedback_l,Zone7,timelimit_screen,1999.957,NaN,NaN,,NaN,0,1,0,NaN,NaN,1,NaN,NaN,trial_left,yellowBox.png,yellowBox.png,redBox.png,al1_con.png,8,7,NaN,NaN,0.15,0.85,0,1,0,0,Volatile,Stable,3.269,1.37,1.786,2.328,expert
38,1671191380112,16/12/2022 11:49:40,1671191382928,0,16/12/2022 11:49:42,109680,37,task-v1fs,repeat-u7ds#1->-repeat-l3h2#1->-repeat-pi7a#1->-repeat-apgu#1,25989827,BLIND,7672976,NaN,complete,NaN,NaN,computer,Desktop or Laptop,Windows 10,Chrome 108.0.0.0,1920x1080,1920x1080,End of Day 1,SLS,90,B,NaN,NaN,NaN,Pass,End of Day 1,Pass,NaN,Pass,NaN,Pass,schedule_A,schedule_A,8,3,6,end,Zone1,timelimit_screen,150.040999999997,NaN,NaN,,NaN,0,1,0,NaN,NaN,1,NaN,NaN,trial_left,yellowBox.png,yellowBox.png,redBox.png,al1_con.png,8,7,NaN,NaN,0.15,0.85,0,1,0,0,Volatile,Stable,3.269,1.37,1.786,2.328,expert
39,1671191381132,16/12/2022 11:49:41,1671191383948,0,16/12/2022 11:49:43,109680,37,task-v1fs,repeat-u7ds#1->-repeat-l3h2#1->-repeat-pi7a#1->-repeat-apgu#1,25989827,BLIND,7672976,NaN,complete,NaN,NaN,computer,Desktop or Laptop,Windows 10,Chrome 108.0.0.0,1920x1080,1920x1080,End of Day 1,SLS,90,B,NaN,NaN,NaN,Pass,End of Day 1,Pass,NaN,Pass,NaN,Pass,schedule_A,schedule_A,9,4,1,Screen 1,Zone1,continue_button,1006,NaN,NaN,,NaN,0,1,0,NaN,NaN,NaN,NaN,NaN,trial_left,yellowBox.png,redBox.png,yellowBox.png,al1_con.png,9,8,NaN,NaN,0.15,0.85,0,0,1,1,Volatile,Stable,3.975,0.576,1.256,1.807,expert
40,1671191382123,16/12/2022 11:49:42,1671191384945,0,16/12/2022 11:49:44,109680,37,task-v1fs,repeat-u7ds#1->-repeat-l3h2#1->-repeat-pi7a#1->-repeat-apgu#1,25989827,BLIND,7672976,NaN,complete,NaN,NaN,computer,Desktop or Laptop,Windows 10,Chrome 108.0.0.0,1920x1080,1920x1080,End of Day 1,SLS,90,B,NaN,NaN,NaN,Pass,End of Day 1,Pass,NaN,Pass,NaN,Pass,schedule_A,schedule_A,9,4,2,individual,Zone4,timelimit_screen,999.943999999996,NaN,NaN,,NaN,0,1,0,NaN,NaN,1,NaN,NaN,trial_left,yellowBox.png,redBox.png,yellowBox.png,al1_con.png,9,8,NaN,NaN,0.15,0.85,0,0,1,1,Volatile,Stable,3.975,0.576,1.256,1.807,expert
41,1671191385578,16/12/2022 11:49:45,1671191388397,0,16/12/2022 11:49:48,109680,37,task-v1fs,repeat-u7ds#1->-repeat-l3h2#1->-repeat-pi7a#1->-repeat-apgu#1,25989827,BLIND,7672976,NaN,complete,NaN,NaN,computer,Desktop or Laptop,Windows 10,Chrome 108.0.0.0,1920x1080,1920x1080,End of Day 1,SLS,90,B,NaN,NaN,NaN,Pass,End of Day 1,Pass,NaN,Pass,NaN,Pass,schedule_A,schedule_A,9,4,3,offer,Zone2,response_button_image,3446.09999999404,NaN,NaN,redBox.png,1,0,1,0,NaN,NaN,NaN,NaN,NaN,trial_left,yellowBox.png,redBox.png,yellowBox.png,al1_con.png,9,8,NaN,NaN,0.15,0.85,0,0,1,1,Volatile,Stable,3.975,0.576,1.256,1.807,expert
42,1671191387582,16/12/2022 11:49:47,1671191390394,0,16/12/2022 11:49:50,109680,37,task-v1fs,repeat-u7ds#1->-repeat-l3h2#1->-repeat-pi7a#1->-repeat-apgu#1,25989827,BLIND,7672976,NaN,complete,NaN,NaN,computer,Desktop or Laptop,Windows 10,Chrome 108.0.0.0,1920x1080,1920x1080,End of Day 1,SLS,90,B,NaN,NaN,NaN,Pass,End of Day 1,Pass,NaN,Pass,NaN,Pass,schedule_A,schedule_A,9,4,4,feedback_l,Zone7,timelimit_screen,1999.956,NaN,NaN,,NaN,0,1,0,NaN,NaN,1,NaN,NaN,trial_left,yellowBox.png,redBox.png,yellowBox.png,al1_con.png,9,8,NaN,NaN,0.15,0.85,0,0,1,1,Volatile,Stable,3.975,0.576,1.256,1.807,expert
43,1671191387728,16/12/2022 11:49:47,1671191390544,0,16/12/2022 11:49:50,109680,37,task-v1fs,repeat-u7ds#1->-repeat-l3h2#1->-repeat-pi7a#1->-repeat-apgu#1,25989827,BLIND,7672976,NaN,complete,NaN,NaN,computer,Desktop or Laptop,Windows 10,Chrome 108.0.0.0,1920x1080,1920x1080,End of Day 1,SLS,90,B,NaN,NaN,NaN,Pass,End of Day 1,Pass,NaN,Pass,NaN,Pass,schedule_A,schedule_A,9,4,6,end,Zone1,timelimit_screen,149.943999999996,NaN,NaN,,NaN,0,1,0,NaN,NaN,1,NaN,NaN,trial_left,yellowBox.png,redBox.png,yellowBox.png,al1_con.png,9,8,NaN,NaN,0.15,0.85,0,0,1,1,Volatile,Stable,3.975,0.576,1.256,1.807,expert
44,1671191389026,16/12/2022 11:49:49,1671191391845,0,16/12/2022 11:49:51,109680,37,task-v1fs,repeat-u7ds#1->-repeat-l3h2#1->-repeat-pi7a#1->-repeat-apgu#1,25989827,BLIND,7672976,NaN,complete,NaN,NaN,computer,Desktop or Laptop,Windows 10,Chrome 108.0.0.0,1920x1080,1920x1080,End of Day 1,SLS,90,B,NaN,NaN,NaN,Pass,End of Day 1,Pass,NaN,Pass,NaN,Pass,schedule_A,schedule_A,10,5,1,Screen 1,Zone1,continue_button,1288.79999999702,NaN,NaN,,NaN,0,1,0,NaN,NaN,NaN,NaN,NaN,trial_right,redBox.png,redBox.png,yellowBox.png,al1_con.png,10,9,NaN,NaN,0.15,0.85,1,0,0,1,Volatile,Stable,3.798,1.055,1.559,2.042,expert
45,1671191390023,16/12/2022 11:49:50,1671191392844,0,16/12/2022 11:49:52,109680,37,task-v1fs,repeat-u7ds#1->-repeat-l3h2#1->-repeat-pi7a#1->-repeat-apgu#1,25989827,BLIND,7672976,NaN,complete,NaN,NaN,computer,Desktop or Laptop,Windows 10,Chrome 108.0.0.0,1920x1080,1920x1080,End of Day 1,SLS,90,B,NaN,NaN,NaN,Pass,End of Day 1,Pass,NaN,Pass,NaN,Pass,schedule_A,schedule_A,10,5,2,individual,Zone4,timelimit_screen,1000.00700000001,NaN,NaN,,NaN,0,1,0,NaN,NaN,1,NaN,NaN,trial_right,redBox.png,redBox.png,yellowBox.png,al1_con.png,10,9,NaN,NaN,0.15,0.85,1,0,0,1,Volatile,Stable,3.798,1.055,1.559,2.042,expert
46,1671191390565,16/12/2022 11:49:50,1671191393381,0,16/12/2022 11:49:53,109680,37,task-v1fs,repeat-u7ds#1->-repeat-l3h2#1->-repeat-pi7a#1->-repeat-apgu#1,25989827,BLIND,7672976,NaN,complete,NaN,NaN,computer,Desktop or Laptop,Windows 10,Chrome 108.0.0.0,1920x1080,1920x1080,End of Day 1,SLS,90,B,NaN,NaN,NaN,Pass,End of Day 1,Pass,NaN,Pass,NaN,Pass,schedule_A,schedule_A,10,5,3,offer,Zone2,response_button_image,530.70000000298,NaN,NaN,redBox.png,1,1,0,0,NaN,NaN,NaN,NaN,NaN,trial_right,redBox.png,redBox.png,yellowBox.png,al1_con.png,10,9,NaN,NaN,0.15,0.85,1,0,0,1,Volatile,Stable,3.798,1.055,1.559,2.042,expert
47,1671191392611,16/12/2022 11:49:52,1671191395378,0,16/12/2022 11:49:55,109680,37,task-v1fs,repeat-u7ds#1->-repeat-l3h2#1->-repeat-pi7a#1->-repeat-apgu#1,25989827,BLIND,7672976,NaN,complete,NaN,NaN,computer,Desktop or Laptop,Windows 10,Chrome 108.0.0.0,1920x1080,1920x1080,End of Day 1,SLS,90,B,NaN,NaN,NaN,Pass,End of Day 1,Pass,NaN,Pass,NaN,Pass,schedule_A,schedule_A,10,5,4,feedback_l,Zone7,timelimit_screen,1999.95,NaN,NaN,,NaN,0,1,0,NaN,NaN,1,NaN,NaN,trial_right,redBox.png,redBox.png,yellowBox.png,al1_con.png,10,9,NaN,NaN,0.15,0.85,1,0,0,1,Volatile,Stable,3.798,1.055,1.559,2.042,expert
48,1671191392712,16/12/2022 11:49:52,1671191395527,0,16/12/2022 11:49:55,109680,37,task-v1fs,repeat-u7ds#1->-repeat-l3h2#1->-repeat-pi7a#1->-repeat-apgu#1,25989827,BLIND,7672976,NaN,complete,NaN,NaN,computer,Desktop or Laptop,Windows 10,Chrome 108.0.0.0,1920x1080,1920x1080,End of Day 1,SLS,90,B,NaN,NaN,NaN,Pass,End of Day 1,Pass,NaN,Pass,NaN,Pass,schedule_A,schedule_A,10,5,6,end,Zone1,timelimit_screen,150.004999999997,NaN,NaN,,NaN,0,1,0,NaN,NaN,1,NaN,NaN,trial_right,redBox.png,redBox.png,yellowBox.png,al1_con.png,10,9,NaN,NaN,0.15,0.85,1,0,0,1,Volatile,Stable,3.798,1.055,1.559,2.042,expert
49,1671191393359,16/12/2022 11:49:53,1671191396182,0,16/12/2022 11:49:56,109680,37,task-v1fs,repeat-u7ds#1->-repeat-l3h2#1->-repeat-pi7a#1->-repeat-apgu#1,25989827,BLIND,7672976,NaN,complete,NaN,NaN,computer,Desktop or Laptop,Windows 10,Chrome 108.0.0.0,1920x1080,1920x1080,End of Day 1,SLS,90,B,NaN,NaN,NaN,Pass,End of Day 1,Pass,NaN,Pass,NaN,Pass,schedule_A,schedule_A,11,6,1,Screen 1,Zone1,continue_button,642.30000000447,NaN,NaN,,NaN,0,1,0,NaN,NaN,NaN,NaN,NaN,trial_right,yellowBox.png,redBox.png,yellowBox.png,al1_con.png,21,10,NaN,NaN,0.15,0.85,0,1,0,1,Volatile,Stable,1.857,0.5,1.294,2.916,expert
50,1671191394359,16/12/2022 11:49:54,1671191397178,0,16/12/2022 11:49:57,109680,37,task-v1fs,repeat-u7ds#1->-repeat-l3h2#1->-repeat-pi7a#1->-repeat-apgu#1,25989827,BLIND,7672976,NaN,complete,NaN,NaN,computer,Desktop or Laptop,Windows 10,Chrome 108.0.0.0,1920x1080,1920x1080,End of Day 1,SLS,90,B,NaN,NaN,NaN,Pass,End of Day 1,Pass,NaN,Pass,NaN,Pass,schedule_A,schedule_A,11,6,2,individual,Zone4,timelimit_screen,999.974000000002,NaN,NaN,,NaN,0,1,0,NaN,NaN,1,NaN,NaN,trial_right,yellowBox.png,redBox.png,yellowBox.png,al1_con.png,21,10,NaN,NaN,0.15,0.85,0,1,0,1,Volatile,Stable,1.857,0.5,1.294,2.916,expert
51,1671191395360,16/12/2022 11:49:55,1671191398174,0,16/12/2022 11:49:58,109680,37,task-v1fs,repeat-u7ds#1->-repeat-l3h2#1->-repeat-pi7a#1->-repeat-apgu#1,25989827,BLIND,7672976,NaN,complete,NaN,NaN,computer,Desktop or Laptop,Windows 10,Chrome 108.0.0.0,1920x1080,1920x1080,End of Day 1,SLS,90,B,NaN,NaN,NaN,Pass,End of Day 1,Pass,NaN,Pass,NaN,Pass,schedule_A,schedule_A,11,6,3,offer,Zone2,response_button_image,990.29999999702,NaN,NaN,redBox.png,1,0,1,0,NaN,NaN,NaN,NaN,NaN,trial_right,yellowBox.png,redBox.png,yellowBox.png,al1_con.png,21,10,NaN,NaN,0.15,0.85,0,1,0,1,Volatile,Stable,1.857,0.5,1.294,2.916,expert
52,1671191397350,16/12/2022 11:49:57,1671191400161,0,16/12/2022 11:50:00,109680,37,task-v1fs,repeat-u7ds#1->-repeat-l3h2#1->-repeat-pi7a#1->-repeat-apgu#1,25989827,BLIND,7672976,NaN,complete,NaN,NaN,computer,Desktop or Laptop,Windows 10,Chrome 108.0.0.0,1920x1080,1920x1080,End of Day 1,SLS,90,B,NaN,NaN,NaN,Pass,End of Day 1,Pass,NaN,Pass,NaN,Pass,schedule_A,schedule_A,11,6,4,feedback_l,Zone7,timelimit_screen,1999.957,NaN,NaN,,NaN,0,1,0,NaN,NaN,1,NaN,NaN,trial_right,yellowBox.png,redBox.png,yellowBox.png,al1_con.png,21,10,NaN,NaN,0.15,0.85,0,1,0,1,Volatile,Stable,1.857,0.5,1.294,2.916,expert
53,1671191397496,16/12/2022 11:49:57,1671191400311,0,16/12/2022 11:50:00,109680,37,task-v1fs,repeat-u7ds#1->-repeat-l3h2#1->-repeat-pi7a#1->-repeat-apgu#1,25989827,BLIND,7672976,NaN,complete,NaN,NaN,computer,Desktop or Laptop,Windows 10,Chrome 108.0.0.0,1920x1080,1920x1080,End of Day 1,SLS,90,B,NaN,NaN,NaN,Pass,End of Day 1,Pass,NaN,Pass,NaN,Pass,schedule_A,schedule_A,11,6,6,end,Zone1,timelimit_screen,150.054000000004,NaN,NaN,,NaN,0,1,0,NaN,NaN,1,NaN,NaN,trial_right,yellowBox.png,redBox.png,yellowBox.png,al1_con.png,21,10,NaN,NaN,0.15,0.85,0,1,0,1,Volatile,Stable,1.857,0.5,1.294,2.916,expert
54,1671191398271,16/12/2022 11:49:58,1671191401086,0,16/12/2022 11:50:01,109680,37,task-v1fs,repeat-u7ds#1->-repeat-l3h2#1->-repeat-pi7a#1->-repeat-apgu#1,25989827,BLIND,7672976,NaN,complete,NaN,NaN,computer,Desktop or Laptop,Windows 10,Chrome 108.0.0.0,1920x1080,1920x1080,End of Day 1,SLS,90,B,NaN,NaN,NaN,Pass,End of Day 1,Pass,NaN,Pass,NaN,Pass,schedule_A,schedule_A,12,5,1,Screen 1,Zone1,continue_button,764.79999999702,NaN,NaN,,NaN,0,1,0,NaN,NaN,NaN,NaN,NaN,trial_left,redBox.png,redBox.png,yellowBox.png,al1_con.png,22,11,NaN,NaN,0.85,0.85,1,1,1,1,Volatile,Stable,1.126,1.849,1.483,1.689,expert
55,1671191399264,16/12/2022 11:49:59,1671191402077,0,16/12/2022 11:50:02,109680,37,task-v1fs,repeat-u7ds#1->-repeat-l3h2#1->-repeat-pi7a#1->-repeat-apgu#1,25989827,BLIND,7672976,NaN,complete,NaN,NaN,computer,Desktop or Laptop,Windows 10,Chrome 108.0.0.0,1920x1080,1920x1080,End of Day 1,SLS,90,B,NaN,NaN,NaN,Pass,End of Day 1,Pass,NaN,Pass,NaN,Pass,schedule_A,schedule_A,12,5,2,individual,Zone4,timelimit_screen,999.978000000003,NaN,NaN,,NaN,0,1,0,NaN,NaN,1,NaN,NaN,trial_left,redBox.png,redBox.png,yellowBox.png,al1_con.png,22,11,NaN,NaN,0.85,0.85,1,1,1,1,Volatile,Stable,1.126,1.849,1.483,1.689,expert
56,1671191400087,16/12/2022 11:50:00,1671191402902,0,16/12/2022 11:50:02,109680,37,task-v1fs,repeat-u7ds#1->-repeat-l3h2#1->-repeat-pi7a#1->-repeat-apgu#1,25989827,BLIND,7672976,NaN,complete,NaN,NaN,computer,Desktop or Laptop,Windows 10,Chrome 108.0.0.0,1920x1080,1920x1080,End of Day 1,SLS,90,B,NaN,NaN,NaN,Pass,End of Day 1,Pass,NaN,Pass,NaN,Pass,schedule_A,schedule_A,12,5,3,offer,Zone2,response_button_image,818.70000000298,NaN,NaN,redBox.png,1,1,0,0,NaN,NaN,NaN,NaN,NaN,trial_left,redBox.png,redBox.png,yellowBox.png,al1_con.png,22,11,NaN,NaN,0.85,0.85,1,1,1,1,Volatile,Stable,1.126,1.849,1.483,1.689,expert
57,1671191402073,16/12/2022 11:50:02,1671191404894,0,16/12/2022 11:50:04,109680,37,task-v1fs,repeat-u7ds#1->-repeat-l3h2#1->-repeat-pi7a#1->-repeat-apgu#1,25989827,BLIND,7672976,NaN,complete,NaN,NaN,computer,Desktop or Laptop,Windows 10,Chrome 108.0.0.0,1920x1080,1920x1080,End of Day 1,SLS,90,B,NaN,NaN,NaN,Pass,End of Day 1,Pass,NaN,Pass,NaN,Pass,schedule_A,schedule_A,12,5,4,feedback_l,Zone7,timelimit_screen,1999.903,NaN,NaN,,NaN,0,1,0,NaN,NaN,1,NaN,NaN,trial_left,redBox.png,redBox.png,yellowBox.png,al1_con.png,22,11,NaN,NaN,0.85,0.85,1,1,1,1,Volatile,Stable,1.126,1.849,1.483,1.689,expert
58,1671191402228,16/12/2022 11:50:02,1671191405044,0,16/12/2022 11:50:05,109680,37,task-v1fs,repeat-u7ds#1->-repeat-l3h2#1->-repeat-pi7a#1->-repeat-apgu#1,25989827,BLIND,7672976,NaN,complete,NaN,NaN,computer,Desktop or Laptop,Windows 10,Chrome 108.0.0.0,1920x1080,1920x1080,End of Day 1,SLS,90,B,NaN,NaN,NaN,Pass,End of Day 1,Pass,NaN,Pass,NaN,Pass,schedule_A,schedule_A,12,5,6,end,Zone1,timelimit_screen,150.008000000002,NaN,NaN,,NaN,0,1,0,NaN,NaN,1,NaN,NaN,trial_left,redBox.png,redBox.png,yellowBox.png,al1_con.png,22,11,NaN,NaN,0.85,0.85,1,1,1,1,Volatile,Stable,1.126,1.849,1.483,1.689,expert
59,1671191404176,16/12/2022 11:50:04,1671191406983,0,16/12/2022 11:50:06,109680,37,task-v1fs,repeat-u7ds#1->-repeat-l3h2#1->-repeat-pi7a#1->-repeat-apgu#1,25989827,BLIND,7672976,NaN,complete,NaN,NaN,computer,Desktop or Laptop,Windows 10,Chrome 108.0.0.0,1920x1080,1920x1080,End of Day 1,SLS,90,B,NaN,NaN,NaN,Pass,End of Day 1,Pass,NaN,Pass,NaN,Pass,schedule_A,schedule_A,13,7,1,Screen 1,Zone1,continue_button,1927,NaN,NaN,,NaN,0,1,0,NaN,NaN,NaN,NaN,NaN,trial_right,redBox.png,yellowBox.png,redBox.png,al1_con.png,23,12,NaN,NaN,0.85,0.85,1,1,1,0,Volatile,Stable,2.361,0.992,0.5,1.975,expert
60,1671191405157,16/12/2022 11:50:05,1671191407978,0,16/12/2022 11:50:07,109680,37,task-v1fs,repeat-u7ds#1->-repeat-l3h2#1->-repeat-pi7a#1->-repeat-apgu#1,25989827,BLIND,7672976,NaN,complete,NaN,NaN,computer,Desktop or Laptop,Windows 10,Chrome 108.0.0.0,1920x1080,1920x1080,End of Day 1,SLS,90,B,NaN,NaN,NaN,Pass,End of Day 1,Pass,NaN,Pass,NaN,Pass,schedule_A,schedule_A,13,7,2,individual,Zone4,timelimit_screen,999.976999999992,NaN,NaN,,NaN,0,1,0,NaN,NaN,1,NaN,NaN,trial_right,redBox.png,yellowBox.png,redBox.png,al1_con.png,23,12,NaN,NaN,0.85,0.85,1,1,1,0,Volatile,Stable,2.361,0.992,0.5,1.975,expert
61,1671191488172,16/12/2022 11:51:28,1671191490976,0,16/12/2022 11:51:30,109680,37,task-v1fs,repeat-u7ds#1->-repeat-l3h2#1->-repeat-pi7a#1->-repeat-apgu#1,25989827,BLIND,7672976,NaN,complete,NaN,NaN,computer,Desktop or Laptop,Windows 10,Chrome 108.0.0.0,1920x1080,1920x1080,End of Day 1,SLS,90,B,NaN,NaN,NaN,Pass,End of Day 1,Pass,NaN,Pass,NaN,Pass,schedule_A,schedule_A,13,7,3,offer,Zone3,response_button_image,82992.1999999955,NaN,NaN,redBox.png,1,1,0,0,NaN,NaN,NaN,NaN,NaN,trial_right,redBox.png,yellowBox.png,redBox.png,al1_con.png,23,12,NaN,NaN,0.85,0.85,1,1,1,0,Volatile,Stable,2.361,0.992,0.5,1.975,expert
62,1671191490169,16/12/2022 11:51:30,1671191492975,0,16/12/2022 11:51:32,109680,37,task-v1fs,repeat-u7ds#1->-repeat-l3h2#1->-repeat-pi7a#1->-repeat-apgu#1,25989827,BLIND,7672976,NaN,complete,NaN,NaN,computer,Desktop or Laptop,Windows 10,Chrome 108.0.0.0,1920x1080,1920x1080,End of Day 1,SLS,90,B,NaN,NaN,NaN,Pass,End of Day 1,Pass,NaN,Pass,NaN,Pass,schedule_A,schedule_A,13,7,5,feedback_r,Zone7,timelimit_screen,1999.97,NaN,NaN,,NaN,0,1,0,NaN,NaN,1,NaN,NaN,trial_right,redBox.png,yellowBox.png,redBox.png,al1_con.png,23,12,NaN,NaN,0.85,0.85,1,1,1,0,Volatile,Stable,2.361,0.992,0.5,1.975,expert
63,1671191490311,16/12/2022 11:51:30,1671191493125,0,16/12/2022 11:51:33,109680,37,task-v1fs,repeat-u7ds#1->-repeat-l3h2#1->-repeat-pi7a#1->-repeat-apgu#1,25989827,BLIND,7672976,NaN,complete,NaN,NaN,computer,Desktop or Laptop,Windows 10,Chrome 108.0.0.0,1920x1080,1920x1080,End of Day 1,SLS,90,B,NaN,NaN,NaN,Pass,End of Day 1,Pass,NaN,Pass,NaN,Pass,schedule_A,schedule_A,13,7,6,end,Zone1,timelimit_screen,150.008000000002,NaN,NaN,,NaN,0,1,0,NaN,NaN,1,NaN,NaN,trial_right,redBox.png,yellowBox.png,redBox.png,al1_con.png,23,12,NaN,NaN,0.85,0.85,1,1,1,0,Volatile,Stable,2.361,0.992,0.5,1.975,expert
64,1671191491243,16/12/2022 11:51:31,1671191494048,0,16/12/2022 11:51:34,109680,37,task-v1fs,repeat-u7ds#1->-repeat-l3h2#1->-repeat-pi7a#1->-repeat-apgu#1,25989827,BLIND,7672976,NaN,complete,NaN,NaN,computer,Desktop or Laptop,Windows 10,Chrome 108.0.0.0,1920x1080,1920x1080,End of Day 1,SLS,90,B,NaN,NaN,NaN,Pass,End of Day 1,Pass,NaN,Pass,NaN,Pass,schedule_A,schedule_A,14,8,1,Screen 1,Zone1,continue_button,907.19999999553,NaN,NaN,,NaN,0,1,0,NaN,NaN,NaN,NaN,NaN,trial_right,redBox.png,redBox.png,yellowBox.png,al1_con.png,24,13,NaN,NaN,0.85,0.85,1,0,0,1,Volatile,Stable,1.05,1.95,1.319,1.487,expert
65,1671191492235,16/12/2022 11:51:32,1671191495042,0,16/12/2022 11:51:35,109680,37,task-v1fs,repeat-u7ds#1->-repeat-l3h2#1->-repeat-pi7a#1->-repeat-apgu#1,25989827,BLIND,7672976,NaN,complete,NaN,NaN,computer,Desktop or Laptop,Windows 10,Chrome 108.0.0.0,1920x1080,1920x1080,End of Day 1,SLS,90,B,NaN,NaN,NaN,Pass,End of Day 1,Pass,NaN,Pass,NaN,Pass,schedule_A,schedule_A,14,8,2,individual,Zone4,timelimit_screen,999.951000000001,NaN,NaN,,NaN,0,1,0,NaN,NaN,1,NaN,NaN,trial_right,redBox.png,redBox.png,yellowBox.png,al1_con.png,24,13,NaN,NaN,0.85,0.85,1,0,0,1,Volatile,Stable,1.05,1.95,1.319,1.487,expert
66,1671191493169,16/12/2022 11:51:33,1671191495984,0,16/12/2022 11:51:35,109680,37,task-v1fs,repeat-u7ds#1->-repeat-l3h2#1->-repeat-pi7a#1->-repeat-apgu#1,25989827,BLIND,7672976,NaN,complete,NaN,NaN,computer,Desktop or Laptop,Windows 10,Chrome 108.0.0.0,1920x1080,1920x1080,End of Day 1,SLS,90,B,NaN,NaN,NaN,Pass,End of Day 1,Pass,NaN,Pass,NaN,Pass,schedule_A,schedule_A,14,8,3,offer,Zone3,response_button_image,935.29999999702,NaN,NaN,yellowBox.png,1,0,1,0,NaN,NaN,NaN,NaN,NaN,trial_right,redBox.png,redBox.png,yellowBox.png,al1_con.png,24,13,NaN,NaN,0.85,0.85,1,0,0,1,Volatile,Stable,1.05,1.95,1.319,1.487,expert
67,1671191495168,16/12/2022 11:51:35,1671191497975,0,16/12/2022 11:51:37,109680,37,task-v1fs,repeat-u7ds#1->-repeat-l3h2#1->-repeat-pi7a#1->-repeat-apgu#1,25989827,BLIND,7672976,NaN,complete,NaN,NaN,computer,Desktop or Laptop,Windows 10,Chrome 108.0.0.0,1920x1080,1920x1080,End of Day 1,SLS,90,B,NaN,NaN,NaN,Pass,End of Day 1,Pass,NaN,Pass,NaN,Pass,schedule_A,schedule_A,14,8,5,feedback_r,Zone7,timelimit_screen,1999.95999999999,NaN,NaN,,NaN,0,1,0,NaN,NaN,1,NaN,NaN,trial_right,redBox.png,redBox.png,yellowBox.png,al1_con.png,24,13,NaN,NaN,0.85,0.85,1,0,0,1,Volatile,Stable,1.05,1.95,1.319,1.487,expert
68,1671191495318,16/12/2022 11:51:35,1671191498125,0,16/12/2022 11:51:38,109680,37,task-v1fs,repeat-u7ds#1->-repeat-l3h2#1->-repeat-pi7a#1->-repeat-apgu#1,25989827,BLIND,7672976,NaN,complete,NaN,NaN,computer,Desktop or Laptop,Windows 10,Chrome 108.0.0.0,1920x1080,1920x1080,End of Day 1,SLS,90,B,NaN,NaN,NaN,Pass,End of Day 1,Pass,NaN,Pass,NaN,Pass,schedule_A,schedule_A,14,8,6,end,Zone1,timelimit_screen,150.057000000001,NaN,NaN,,NaN,0,1,0,NaN,NaN,1,NaN,NaN,trial_right,redBox.png,redBox.png,yellowBox.png,al1_con.png,24,13,NaN,NaN,0.85,0.85,1,0,0,1,Volatile,Stable,1.05,1.95,1.319,1.487,expert
69,1671191497132,16/12/2022 11:51:37,1671191499929,0,16/12/2022 11:51:39,109680,37,task-v1fs,repeat-u7ds#1->-repeat-l3h2#1->-repeat-pi7a#1->-repeat-apgu#1,25989827,BLIND,7672976,NaN,complete,NaN,NaN,computer,Desktop or Laptop,Windows 10,Chrome 108.0.0.0,1920x1080,1920x1080,End of Day 1,SLS,90,B,NaN,NaN,NaN,Pass,End of Day 1,Pass,NaN,Pass,NaN,Pass,schedule_A,schedule_A,15,9,1,Screen 1,Zone1,continue_button,1790.10000000149,NaN,NaN,,NaN,0,1,0,NaN,NaN,NaN,NaN,NaN,trial_right,redBox.png,yellowBox.png,redBox.png,al1_con.png,25,14,NaN,NaN,0.85,0.85,1,1,1,0,Volatile,Stable,3.395,0.84,0.803,1.252,expert
70,1671191498112,16/12/2022 11:51:38,1671191500926,0,16/12/2022 11:51:40,109680,37,task-v1fs,repeat-u7ds#1->-repeat-l3h2#1->-repeat-pi7a#1->-repeat-apgu#1,25989827,BLIND,7672976,NaN,complete,NaN,NaN,computer,Desktop or Laptop,Windows 10,Chrome 108.0.0.0,1920x1080,1920x1080,End of Day 1,SLS,90,B,NaN,NaN,NaN,Pass,End of Day 1,Pass,NaN,Pass,NaN,Pass,schedule_A,schedule_A,15,9,2,individual,Zone4,timelimit_screen,999.962999999989,NaN,NaN,,NaN,0,1,0,NaN,NaN,1,NaN,NaN,trial_right,redBox.png,yellowBox.png,redBox.png,al1_con.png,25,14,NaN,NaN,0.85,0.85,1,1,1,0,Volatile,Stable,3.395,0.84,0.803,1.252,expert
71,1671191498967,16/12/2022 11:51:38,1671191501785,0,16/12/2022 11:51:41,109680,37,task-v1fs,repeat-u7ds#1->-repeat-l3h2#1->-repeat-pi7a#1->-repeat-apgu#1,25989827,BLIND,7672976,NaN,complete,NaN,NaN,computer,Desktop or Laptop,Windows 10,Chrome 108.0.0.0,1920x1080,1920x1080,End of Day 1,SLS,90,B,NaN,NaN,NaN,Pass,End of Day 1,Pass,NaN,Pass,NaN,Pass,schedule_A,schedule_A,15,9,3,offer,Zone3,response_button_image,852.60000000149,NaN,NaN,redBox.png,1,1,0,0,NaN,NaN,NaN,NaN,NaN,trial_right,redBox.png,yellowBox.png,redBox.png,al1_con.png,25,14,NaN,NaN,0.85,0.85,1,1,1,0,Volatile,Stable,3.395,0.84,0.803,1.252,expert
72,1671191500963,16/12/2022 11:51:40,1671191503775,0,16/12/2022 11:51:43,109680,37,task-v1fs,repeat-u7ds#1->-repeat-l3h2#1->-repeat-pi7a#1->-repeat-apgu#1,25989827,BLIND,7672976,NaN,complete,NaN,NaN,computer,Desktop or Laptop,Windows 10,Chrome 108.0.0.0,1920x1080,1920x1080,End of Day 1,SLS,90,B,NaN,NaN,NaN,Pass,End of Day 1,Pass,NaN,Pass,NaN,Pass,schedule_A,schedule_A,15,9,5,feedback_r,Zone7,timelimit_screen,1999.95499999999,NaN,NaN,,NaN,0,1,0,NaN,NaN,1,NaN,NaN,trial_right,redBox.png,yellowBox.png,redBox.png,al1_con.png,25,14,NaN,NaN,0.85,0.85,1,1,1,0,Volatile,Stable,3.395,0.84,0.803,1.252,expert
73,1671191501112,16/12/2022 11:51:41,1671191503925,0,16/12/2022 11:51:43,109680,37,task-v1fs,repeat-u7ds#1->-repeat-l3h2#1->-repeat-pi7a#1->-repeat-apgu#1,25989827,BLIND,7672976,NaN,complete,NaN,NaN,computer,Desktop or Laptop,Windows 10,Chrome 108.0.0.0,1920x1080,1920x1080,End of Day 1,SLS,90,B,NaN,NaN,NaN,Pass,End of Day 1,Pass,NaN,Pass,NaN,Pass,schedule_A,schedule_A,15,9,6,end,Zone1,timelimit_screen,150.052000000025,NaN,NaN,,NaN,0,1,0,NaN,NaN,1,NaN,NaN,trial_right,redBox.png,yellowBox.png,redBox.png,al1_con.png,25,14,NaN,NaN,0.85,0.85,1,1,1,0,Volatile,Stable,3.395,0.84,0.803,1.252,expert
74,1671191502974,16/12/2022 11:51:42,1671191505777,0,16/12/2022 11:51:45,109680,37,task-v1fs,repeat-u7ds#1->-repeat-l3h2#1->-repeat-pi7a#1->-repeat-apgu#1,25989827,BLIND,7672976,NaN,complete,NaN,NaN,computer,Desktop or Laptop,Windows 10,Chrome 108.0.0.0,1920x1080,1920x1080,End of Day 1,SLS,90,B,NaN,NaN,NaN,Pass,End of Day 1,Pass,NaN,Pass,NaN,Pass,schedule_A,schedule_A,16,10,1,Screen 1,Zone1,continue_button,1841.10000000149,NaN,NaN,,NaN,0,1,0,NaN,NaN,NaN,NaN,NaN,trial_right,yellowBox.png,redBox.png,yellowBox.png,al1_con.png,26,15,NaN,NaN,0.85,0.85,0,1,0,1,Volatile,Stable,2.689,1.067,1.697,2.731,expert
75,1671191503982,16/12/2022 11:51:43,1671191506775,0,16/12/2022 11:51:46,109680,37,task-v1fs,repeat-u7ds#1->-repeat-l3h2#1->-repeat-pi7a#1->-repeat-apgu#1,25989827,BLIND,7672976,NaN,complete,NaN,NaN,computer,Desktop or Laptop,Windows 10,Chrome 108.0.0.0,1920x1080,1920x1080,End of Day 1,SLS,90,B,NaN,NaN,NaN,Pass,End of Day 1,Pass,NaN,Pass,NaN,Pass,schedule_A,schedule_A,16,10,2,individual,Zone4,timelimit_screen,999.966999999975,NaN,NaN,,NaN,0,1,0,NaN,NaN,1,NaN,NaN,trial_right,yellowBox.png,redBox.png,yellowBox.png,al1_con.png,26,15,NaN,NaN,0.85,0.85,0,1,0,1,Volatile,Stable,2.689,1.067,1.697,2.731,expert
76,1671191505304,16/12/2022 11:51:45,1671191508121,0,16/12/2022 11:51:48,109680,37,task-v1fs,repeat-u7ds#1->-repeat-l3h2#1->-repeat-pi7a#1->-repeat-apgu#1,25989827,BLIND,7672976,NaN,complete,NaN,NaN,computer,Desktop or Laptop,Windows 10,Chrome 108.0.0.0,1920x1080,1920x1080,End of Day 1,SLS,90,B,NaN,NaN,NaN,Pass,End of Day 1,Pass,NaN,Pass,NaN,Pass,schedule_A,schedule_A,16,10,3,offer,Zone3,response_button_image,1339.89999999851,NaN,NaN,yellowBox.png,1,1,0,0,NaN,NaN,NaN,NaN,NaN,trial_right,yellowBox.png,redBox.png,yellowBox.png,al1_con.png,26,15,NaN,NaN,0.85,0.85,0,1,0,1,Volatile,Stable,2.689,1.067,1.697,2.731,expert
77,1671191507299,16/12/2022 11:51:47,1671191510108,0,16/12/2022 11:51:50,109680,37,task-v1fs,repeat-u7ds#1->-repeat-l3h2#1->-repeat-pi7a#1->-repeat-apgu#1,25989827,BLIND,7672976,NaN,complete,NaN,NaN,computer,Desktop or Laptop,Windows 10,Chrome 108.0.0.0,1920x1080,1920x1080,End of Day 1,SLS,90,B,NaN,NaN,NaN,Pass,End of Day 1,Pass,NaN,Pass,NaN,Pass,schedule_A,schedule_A,16,10,5,feedback_r,Zone7,timelimit_screen,1999.959,NaN,NaN,,NaN,0,1,0,NaN,NaN,1,NaN,NaN,trial_right,yellowBox.png,redBox.png,yellowBox.png,al1_con.png,26,15,NaN,NaN,0.85,0.85,0,1,0,1,Volatile,Stable,2.689,1.067,1.697,2.731,expert
78,1671191507443,16/12/2022 11:51:47,1671191510258,0,16/12/2022 11:51:50,109680,37,task-v1fs,repeat-u7ds#1->-repeat-l3h2#1->-repeat-pi7a#1->-repeat-apgu#1,25989827,BLIND,7672976,NaN,complete,NaN,NaN,computer,Desktop or Laptop,Windows 10,Chrome 108.0.0.0,1920x1080,1920x1080,End of Day 1,SLS,90,B,NaN,NaN,NaN,Pass,End of Day 1,Pass,NaN,Pass,NaN,Pass,schedule_A,schedule_A,16,10,6,end,Zone1,timelimit_screen,150.043000000005,NaN,NaN,,NaN,0,1,0,NaN,NaN,1,NaN,NaN,trial_right,yellowBox.png,redBox.png,yellowBox.png,al1_con.png,26,15,NaN,NaN,0.85,0.85,0,1,0,1,Volatile,Stable,2.689,1.067,1.697,2.731,expert
79,1671191508263,16/12/2022 11:51:48,1671191511074,0,16/12/2022 11:51:51,109680,37,task-v1fs,repeat-u7ds#1->-repeat-l3h2#1->-repeat-pi7a#1->-repeat-apgu#1,25989827,BLIND,7672976,NaN,complete,NaN,NaN,computer,Desktop or Laptop,Windows 10,Chrome 108.0.0.0,1920x1080,1920x1080,End of Day 1,SLS,90,B,NaN,NaN,NaN,Pass,End of Day 1,Pass,NaN,Pass,NaN,Pass,schedule_A,schedule_A,17,6,1,Screen 1,Zone1,continue_button,803.79999999702,NaN,NaN,,NaN,0,1,0,NaN,NaN,NaN,NaN,NaN,trial_left,yellowBox.png,yellowBox.png,redBox.png,al1_con.png,27,16,NaN,NaN,0.15,0.85,0,1,0,0,Volatile,Stable,1.378,0.689,0.878,2.076,expert
80,1671191509246,16/12/2022 11:51:49,1671191512058,0,16/12/2022 11:51:52,109680,37,task-v1fs,repeat-u7ds#1->-repeat-l3h2#1->-repeat-pi7a#1->-repeat-apgu#1,25989827,BLIND,7672976,NaN,complete,NaN,NaN,computer,Desktop or Laptop,Windows 10,Chrome 108.0.0.0,1920x1080,1920x1080,End of Day 1,SLS,90,B,NaN,NaN,NaN,Pass,End of Day 1,Pass,NaN,Pass,NaN,Pass,schedule_A,schedule_A,17,6,2,individual,Zone4,timelimit_screen,999.983000000007,NaN,NaN,,NaN,0,1,0,NaN,NaN,1,NaN,NaN,trial_left,yellowBox.png,yellowBox.png,redBox.png,al1_con.png,27,16,NaN,NaN,0.15,0.85,0,1,0,0,Volatile,Stable,1.378,0.689,0.878,2.076,expert
81,1671191511182,16/12/2022 11:51:51,1671191513994,0,16/12/2022 11:51:53,109680,37,task-v1fs,repeat-u7ds#1->-repeat-l3h2#1->-repeat-pi7a#1->-repeat-apgu#1,25989827,BLIND,7672976,NaN,complete,NaN,NaN,computer,Desktop or Laptop,Windows 10,Chrome 108.0.0.0,1920x1080,1920x1080,End of Day 1,SLS,90,B,NaN,NaN,NaN,Pass,End of Day 1,Pass,NaN,Pass,NaN,Pass,schedule_A,schedule_A,17,6,3,offer,Zone2,response_button_image,1929.20000000298,NaN,NaN,yellowBox.png,1,1,0,0,NaN,NaN,NaN,NaN,NaN,trial_left,yellowBox.png,yellowBox.png,redBox.png,al1_con.png,27,16,NaN,NaN,0.15,0.85,0,1,0,0,Volatile,Stable,1.378,0.689,0.878,2.076,expert
82,1671191513179,16/12/2022 11:51:53,1671191515991,0,16/12/2022 11:51:55,109680,37,task-v1fs,repeat-u7ds#1->-repeat-l3h2#1->-repeat-pi7a#1->-repeat-apgu#1,25989827,BLIND,7672976,NaN,complete,NaN,NaN,computer,Desktop or Laptop,Windows 10,Chrome 108.0.0.0,1920x1080,1920x1080,End of Day 1,SLS,90,B,NaN,NaN,NaN,Pass,End of Day 1,Pass,NaN,Pass,NaN,Pass,schedule_A,schedule_A,17,6,4,feedback_l,Zone7,timelimit_screen,1999.92199999999,NaN,NaN,,NaN,0,1,0,NaN,NaN,1,NaN,NaN,trial_left,yellowBox.png,yellowBox.png,redBox.png,al1_con.png,27,16,NaN,NaN,0.15,0.85,0,1,0,0,Volatile,Stable,1.378,0.689,0.878,2.076,expert
83,1671191513324,16/12/2022 11:51:53,1671191516141,0,16/12/2022 11:51:56,109680,37,task-v1fs,repeat-u7ds#1->-repeat-l3h2#1->-repeat-pi7a#1->-repeat-apgu#1,25989827,BLIND,7672976,NaN,complete,NaN,NaN,computer,Desktop or Laptop,Windows 10,Chrome 108.0.0.0,1920x1080,1920x1080,End of Day 1,SLS,90,B,NaN,NaN,NaN,Pass,End of Day 1,Pass,NaN,Pass,NaN,Pass,schedule_A,schedule_A,17,6,6,end,Zone1,timelimit_screen,150.010000000009,NaN,NaN,,NaN,0,1,0,NaN,NaN,1,NaN,NaN,trial_left,yellowBox.png,yellowBox.png,redBox.png,al1_con.png,27,16,NaN,NaN,0.15,0.85,0,1,0,0,Volatile,Stable,1.378,0.689,0.878,2.076,expert
84,1671191514784,16/12/2022 11:51:54,1671191517586,0,16/12/2022 11:51:57,109680,37,task-v1fs,repeat-u7ds#1->-repeat-l3h2#1->-repeat-pi7a#1->-repeat-apgu#1,25989827,BLIND,7672976,NaN,complete,NaN,NaN,computer,Desktop or Laptop,Windows 10,Chrome 108.0.0.0,1920x1080,1920x1080,End of Day 1,SLS,90,B,NaN,NaN,NaN,Pass,End of Day 1,Pass,NaN,Pass,NaN,Pass,schedule_A,schedule_A,18,11,1,Screen 1,Zone1,continue_button,1433.09999999404,NaN,NaN,,NaN,0,1,0,NaN,NaN,NaN,NaN,NaN,trial_right,yellowBox.png,redBox.png,yellowBox.png,al1_con.png,28,17,NaN,NaN,0.15,0.85,0,1,0,1,Volatile,Stable,2.714,0.739,1.975,1.134,expert
85,1671191515781,16/12/2022 11:51:55,1671191518575,0,16/12/2022 11:51:58,109680,37,task-v1fs,repeat-u7ds#1->-repeat-l3h2#1->-repeat-pi7a#1->-repeat-apgu#1,25989827,BLIND,7672976,NaN,complete,NaN,NaN,computer,Desktop or Laptop,Windows 10,Chrome 108.0.0.0,1920x1080,1920x1080,End of Day 1,SLS,90,B,NaN,NaN,NaN,Pass,End of Day 1,Pass,NaN,Pass,NaN,Pass,schedule_A,schedule_A,18,11,2,individual,Zone4,timelimit_screen,999.965999999986,NaN,NaN,,NaN,0,1,0,NaN,NaN,1,NaN,NaN,trial_right,yellowBox.png,redBox.png,yellowBox.png,al1_con.png,28,17,NaN,NaN,0.15,0.85,0,1,0,1,Volatile,Stable,2.714,0.739,1.975,1.134,expert
86,1671191521022,16/12/2022 11:52:01,1671191523835,0,16/12/2022 11:52:03,109680,37,task-v1fs,repeat-u7ds#1->-repeat-l3h2#1->-repeat-pi7a#1->-repeat-apgu#1,25989827,BLIND,7672976,NaN,complete,NaN,NaN,computer,Desktop or Laptop,Windows 10,Chrome 108.0.0.0,1920x1080,1920x1080,End of Day 1,SLS,90,B,NaN,NaN,NaN,Pass,End of Day 1,Pass,NaN,Pass,NaN,Pass,schedule_A,schedule_A,18,11,3,offer,Zone3,response_button_image,5252.5,NaN,NaN,yellowBox.png,1,1,0,0,NaN,NaN,NaN,NaN,NaN,trial_right,yellowBox.png,redBox.png,yellowBox.png,al1_con.png,28,17,NaN,NaN,0.15,0.85,0,1,0,1,Volatile,Stable,2.714,0.739,1.975,1.134,expert
87,1671191523016,16/12/2022 11:52:03,1671191525824,0,16/12/2022 11:52:05,109680,37,task-v1fs,repeat-u7ds#1->-repeat-l3h2#1->-repeat-pi7a#1->-repeat-apgu#1,25989827,BLIND,7672976,NaN,complete,NaN,NaN,computer,Desktop or Laptop,Windows 10,Chrome 108.0.0.0,1920x1080,1920x1080,End of Day 1,SLS,90,B,NaN,NaN,NaN,Pass,End of Day 1,Pass,NaN,Pass,NaN,Pass,schedule_A,schedule_A,18,11,5,feedback_r,Zone7,timelimit_screen,1999.95500000002,NaN,NaN,,NaN,0,1,0,NaN,NaN,1,NaN,NaN,trial_right,yellowBox.png,redBox.png,yellowBox.png,al1_con.png,28,17,NaN,NaN,0.15,0.85,0,1,0,1,Volatile,Stable,2.714,0.739,1.975,1.134,expert
88,1671191523162,16/12/2022 11:52:03,1671191525974,0,16/12/2022 11:52:05,109680,37,task-v1fs,repeat-u7ds#1->-repeat-l3h2#1->-repeat-pi7a#1->-repeat-apgu#1,25989827,BLIND,7672976,NaN,complete,NaN,NaN,computer,Desktop or Laptop,Windows 10,Chrome 108.0.0.0,1920x1080,1920x1080,End of Day 1,SLS,90,B,NaN,NaN,NaN,Pass,End of Day 1,Pass,NaN,Pass,NaN,Pass,schedule_A,schedule_A,18,11,6,end,Zone1,timelimit_screen,150.036999999982,NaN,NaN,,NaN,0,1,0,NaN,NaN,1,NaN,NaN,trial_right,yellowBox.png,redBox.png,yellowBox.png,al1_con.png,28,17,NaN,NaN,0.15,0.85,0,1,0,1,Volatile,Stable,2.714,0.739,1.975,1.134,expert
89,1671191527104,16/12/2022 11:52:07,1671191529916,0,16/12/2022 11:52:09,109680,37,task-v1fs,repeat-u7ds#1->-repeat-l3h2#1->-repeat-pi7a#1->-repeat-apgu#1,25989827,BLIND,7672976,NaN,complete,NaN,NaN,computer,Desktop or Laptop,Windows 10,Chrome 108.0.0.0,1920x1080,1920x1080,End of Day 1,SLS,90,B,NaN,NaN,NaN,Pass,End of Day 1,Pass,NaN,Pass,NaN,Pass,schedule_A,schedule_A,19,7,1,Screen 1,Zone1,continue_button,3930.80000000447,NaN,NaN,,NaN,0,1,0,NaN,NaN,NaN,NaN,NaN,trial_left,yellowBox.png,yellowBox.png,redBox.png,al1_con.png,29,18,NaN,NaN,0.15,0.85,0,1,0,0,Volatile,Stable,3.874,0.676,1.496,1.639,expert
90,1671191528091,16/12/2022 11:52:08,1671191530908,0,16/12/2022 11:52:10,109680,37,task-v1fs,repeat-u7ds#1->-repeat-l3h2#1->-repeat-pi7a#1->-repeat-apgu#1,25989827,BLIND,7672976,NaN,complete,NaN,NaN,computer,Desktop or Laptop,Windows 10,Chrome 108.0.0.0,1920x1080,1920x1080,End of Day 1,SLS,90,B,NaN,NaN,NaN,Pass,End of Day 1,Pass,NaN,Pass,NaN,Pass,schedule_A,schedule_A,19,7,2,individual,Zone4,timelimit_screen,999.949999999983,NaN,NaN,,NaN,0,1,0,NaN,NaN,1,NaN,NaN,trial_left,yellowBox.png,yellowBox.png,redBox.png,al1_con.png,29,18,NaN,NaN,0.15,0.85,0,1,0,0,Volatile,Stable,3.874,0.676,1.496,1.639,expert
91,1671191529680,16/12/2022 11:52:09,1671191532492,0,16/12/2022 11:52:12,109680,37,task-v1fs,repeat-u7ds#1->-repeat-l3h2#1->-repeat-pi7a#1->-repeat-apgu#1,25989827,BLIND,7672976,NaN,complete,NaN,NaN,computer,Desktop or Laptop,Windows 10,Chrome 108.0.0.0,1920x1080,1920x1080,End of Day 1,SLS,90,B,NaN,NaN,NaN,Pass,End of Day 1,Pass,NaN,Pass,NaN,Pass,schedule_A,schedule_A,19,7,3,offer,Zone2,response_button_image,1577.20000000298,NaN,NaN,yellowBox.png,1,1,0,0,NaN,NaN,NaN,NaN,NaN,trial_left,yellowBox.png,yellowBox.png,redBox.png,al1_con.png,29,18,NaN,NaN,0.15,0.85,0,1,0,0,Volatile,Stable,3.874,0.676,1.496,1.639,expert
92,1671191531681,16/12/2022 11:52:11,1671191534491,0,16/12/2022 11:52:14,109680,37,task-v1fs,repeat-u7ds#1->-repeat-l3h2#1->-repeat-pi7a#1->-repeat-apgu#1,25989827,BLIND,7672976,NaN,complete,NaN,NaN,computer,Desktop or Laptop,Windows 10,Chrome 108.0.0.0,1920x1080,1920x1080,End of Day 1,SLS,90,B,NaN,NaN,NaN,Pass,End of Day 1,Pass,NaN,Pass,NaN,Pass,schedule_A,schedule_A,19,7,4,feedback_l,Zone7,timelimit_screen,1999.959,NaN,NaN,,NaN,0,1,0,NaN,NaN,1,NaN,NaN,trial_left,yellowBox.png,yellowBox.png,redBox.png,al1_con.png,29,18,NaN,NaN,0.15,0.85,0,1,0,0,Volatile,Stable,3.874,0.676,1.496,1.639,expert
93,1671191531833,16/12/2022 11:52:11,1671191534641,0,16/12/2022 11:52:14,109680,37,task-v1fs,repeat-u7ds#1->-repeat-l3h2#1->-repeat-pi7a#1->-repeat-apgu#1,25989827,BLIND,7672976,NaN,complete,NaN,NaN,computer,Desktop or Laptop,Windows 10,Chrome 108.0.0.0,1920x1080,1920x1080,End of Day 1,SLS,90,B,NaN,NaN,NaN,Pass,End of Day 1,Pass,NaN,Pass,NaN,Pass,schedule_A,schedule_A,19,7,6,end,Zone1,timelimit_screen,149.974000000017,NaN,NaN,,NaN,0,1,0,NaN,NaN,1,NaN,NaN,trial_left,yellowBox.png,yellowBox.png,redBox.png,al1_con.png,29,18,NaN,NaN,0.15,0.85,0,1,0,0,Volatile,Stable,3.874,0.676,1.496,1.639,expert
94,1671191532814,16/12/2022 11:52:12,1671191535628,0,16/12/2022 11:52:15,109680,37,task-v1fs,repeat-u7ds#1->-repeat-l3h2#1->-repeat-pi7a#1->-repeat-apgu#1,25989827,BLIND,7672976,NaN,complete,NaN,NaN,computer,Desktop or Laptop,Windows 10,Chrome 108.0.0.0,1920x1080,1920x1080,End of Day 1,SLS,90,B,NaN,NaN,NaN,Pass,End of Day 1,Pass,NaN,Pass,NaN,Pass,schedule_A,schedule_A,20,12,1,Screen 1,Zone1,continue_button,976.5,NaN,NaN,,NaN,0,1,0,NaN,NaN,NaN,NaN,NaN,trial_right,yellowBox.png,yellowBox.png,redBox.png,al1_con.png,30,19,NaN,NaN,0.15,0.85,0,0,1,0,Volatile,Stable,1.252,1.193,0.853,2.681,expert
95,1671191533807,16/12/2022 11:52:13,1671191536624,0,16/12/2022 11:52:16,109680,37,task-v1fs,repeat-u7ds#1->-repeat-l3h2#1->-repeat-pi7a#1->-repeat-apgu#1,25989827,BLIND,7672976,NaN,complete,NaN,NaN,computer,Desktop or Laptop,Windows 10,Chrome 108.0.0.0,1920x1080,1920x1080,End of Day 1,SLS,90,B,NaN,NaN,NaN,Pass,End of Day 1,Pass,NaN,Pass,NaN,Pass,schedule_A,schedule_A,20,12,2,individual,Zone4,timelimit_screen,999.972999999998,NaN,NaN,,NaN,0,1,0,NaN,NaN,1,NaN,NaN,trial_right,yellowBox.png,yellowBox.png,redBox.png,al1_con.png,30,19,NaN,NaN,0.15,0.85,0,0,1,0,Volatile,Stable,1.252,1.193,0.853,2.681,expert
96,1671191535251,16/12/2022 11:52:15,1671191538061,0,16/12/2022 11:52:18,109680,37,task-v1fs,repeat-u7ds#1->-repeat-l3h2#1->-repeat-pi7a#1->-repeat-apgu#1,25989827,BLIND,7672976,NaN,complete,NaN,NaN,computer,Desktop or Laptop,Windows 10,Chrome 108.0.0.0,1920x1080,1920x1080,End of Day 1,SLS,90,B,NaN,NaN,NaN,Pass,End of Day 1,Pass,NaN,Pass,NaN,Pass,schedule_A,schedule_A,20,12,3,offer,Zone3,response_button_image,1429.10000000149,NaN,NaN,redBox.png,1,0,1,0,NaN,NaN,NaN,NaN,NaN,trial_right,yellowBox.png,yellowBox.png,redBox.png,al1_con.png,30,19,NaN,NaN,0.15,0.85,0,0,1,0,Volatile,Stable,1.252,1.193,0.853,2.681,expert
97,1671191537246,16/12/2022 11:52:17,1671191540058,0,16/12/2022 11:52:20,109680,37,task-v1fs,repeat-u7ds#1->-repeat-l3h2#1->-repeat-pi7a#1->-repeat-apgu#1,25989827,BLIND,7672976,NaN,complete,NaN,NaN,computer,Desktop or Laptop,Windows 10,Chrome 108.0.0.0,1920x1080,1920x1080,End of Day 1,SLS,90,B,NaN,NaN,NaN,Pass,End of Day 1,Pass,NaN,Pass,NaN,Pass,schedule_A,schedule_A,20,12,5,feedback_r,Zone7,timelimit_screen,1999.90900000001,NaN,NaN,,NaN,0,1,0,NaN,NaN,1,NaN,NaN,trial_right,yellowBox.png,yellowBox.png,redBox.png,al1_con.png,30,19,NaN,NaN,0.15,0.85,0,0,1,0,Volatile,Stable,1.252,1.193,0.853,2.681,expert
98,1671191537396,16/12/2022 11:52:17,1671191540207,0,16/12/2022 11:52:20,109680,37,task-v1fs,repeat-u7ds#1->-repeat-l3h2#1->-repeat-pi7a#1->-repeat-apgu#1,25989827,BLIND,7672976,NaN,complete,NaN,NaN,computer,Desktop or Laptop,Windows 10,Chrome 108.0.0.0,1920x1080,1920x1080,End of Day 1,SLS,90,B,NaN,NaN,NaN,Pass,End of Day 1,Pass,NaN,Pass,NaN,Pass,schedule_A,schedule_A,20,12,6,end,Zone1,timelimit_screen,150.016999999993,NaN,NaN,,NaN,0,1,0,NaN,NaN,1,NaN,NaN,trial_right,yellowBox.png,yellowBox.png,redBox.png,al1_con.png,30,19,NaN,NaN,0.15,0.85,0,0,1,0,Volatile,Stable,1.252,1.193,0.853,2.681,expert
99,1671191537982,16/12/2022 11:52:17,1671191540797,0,16/12/2022 11:52:20,109680,37,task-v1fs,repeat-u7ds#1->-repeat-l3h2#1->-repeat-pi7a#1->-repeat-apgu#1,25989827,BLIND,7672976,NaN,complete,NaN,NaN,computer,Desktop or Laptop,Windows 10,Chrome 108.0.0.0,1920x1080,1920x1080,End of Day 1,SLS,90,B,NaN,NaN,NaN,Pass,End of Day 1,Pass,NaN,Pass,NaN,Pass,schedule_A,schedule_A,21,13,1,Screen 1,Zone1,continue_button,577.19999999553,NaN,NaN,,NaN,0,1,0,NaN,NaN,NaN,NaN,NaN,trial_right,yellowBox.png,redBox.png,yellowBox.png,al1_con.png,41,20,NaN,NaN,0.15,0.85,0,1,0,1,Volatile,Stable,3.521,1.723,1.37,1.655,expert
100,1671191538988,16/12/2022 11:52:18,1671191541791,0,16/12/2022 11:52:21,109680,37,task-v1fs,repeat-u7ds#1->-repeat-l3h2#1->-repeat-pi7a#1->-repeat-apgu#1,25989827,BLIND,7672976,NaN,complete,NaN,NaN,computer,Desktop or Laptop,Windows 10,Chrome 108.0.0.0,1920x1080,1920x1080,End of Day 1,SLS,90,B,NaN,NaN,NaN,Pass,End of Day 1,Pass,NaN,Pass,NaN,Pass,schedule_A,schedule_A,21,13,2,individual,Zone4,timelimit_screen,999.938999999984,NaN,NaN,,NaN,0,1,0,NaN,NaN,1,NaN,NaN,trial_right,yellowBox.png,redBox.png,yellowBox.png,al1_con.png,41,20,NaN,NaN,0.15,0.85,0,1,0,1,Volatile,Stable,3.521,1.723,1.37,1.655,expert
101,1671191539589,16/12/2022 11:52:19,1671191542397,0,16/12/2022 11:52:22,109680,37,task-v1fs,repeat-u7ds#1->-repeat-l3h2#1->-repeat-pi7a#1->-repeat-apgu#1,25989827,BLIND,7672976,NaN,complete,NaN,NaN,computer,Desktop or Laptop,Windows 10,Chrome 108.0.0.0,1920x1080,1920x1080,End of Day 1,SLS,90,B,NaN,NaN,NaN,Pass,End of Day 1,Pass,NaN,Pass,NaN,Pass,schedule_A,schedule_A,21,13,3,offer,Zone3,response_button_image,598.79999999702,NaN,NaN,yellowBox.png,1,1,0,0,NaN,NaN,NaN,NaN,NaN,trial_right,yellowBox.png,redBox.png,yellowBox.png,al1_con.png,41,20,NaN,NaN,0.15,0.85,0,1,0,1,Volatile,Stable,3.521,1.723,1.37,1.655,expert
102,1671191541583,16/12/2022 11:52:21,1671191544391,0,16/12/2022 11:52:24,109680,37,task-v1fs,repeat-u7ds#1->-repeat-l3h2#1->-repeat-pi7a#1->-repeat-apgu#1,25989827,BLIND,7672976,NaN,complete,NaN,NaN,computer,Desktop or Laptop,Windows 10,Chrome 108.0.0.0,1920x1080,1920x1080,End of Day 1,SLS,90,B,NaN,NaN,NaN,Pass,End of Day 1,Pass,NaN,Pass,NaN,Pass,schedule_A,schedule_A,21,13,5,feedback_r,Zone7,timelimit_screen,1999.951,NaN,NaN,,NaN,0,1,0,NaN,NaN,1,NaN,NaN,trial_right,yellowBox.png,redBox.png,yellowBox.png,al1_con.png,41,20,NaN,NaN,0.15,0.85,0,1,0,1,Volatile,Stable,3.521,1.723,1.37,1.655,expert
103,1671191541726,16/12/2022 11:52:21,1671191544541,0,16/12/2022 11:52:24,109680,37,task-v1fs,repeat-u7ds#1->-repeat-l3h2#1->-repeat-pi7a#1->-repeat-apgu#1,25989827,BLIND,7672976,NaN,complete,NaN,NaN,computer,Desktop or Laptop,Windows 10,Chrome 108.0.0.0,1920x1080,1920x1080,End of Day 1,SLS,90,B,NaN,NaN,NaN,Pass,End of Day 1,Pass,NaN,Pass,NaN,Pass,schedule_A,schedule_A,21,13,6,end,Zone1,timelimit_screen,150.062000000005,NaN,NaN,,NaN,0,1,0,NaN,NaN,1,NaN,NaN,trial_right,yellowBox.png,redBox.png,yellowBox.png,al1_con.png,41,20,NaN,NaN,0.15,0.85,0,1,0,1,Volatile,Stable,3.521,1.723,1.37,1.655,expert
104,1671191542995,16/12/2022 11:52:22,1671191545805,0,16/12/2022 11:52:25,109680,37,task-v1fs,repeat-u7ds#1->-repeat-l3h2#1->-repeat-pi7a#1->-repeat-apgu#1,25989827,BLIND,7672976,NaN,complete,NaN,NaN,computer,Desktop or Laptop,Windows 10,Chrome 108.0.0.0,1920x1080,1920x1080,End of Day 1,SLS,90,B,NaN,NaN,NaN,Pass,End of Day 1,Pass,NaN,Pass,NaN,Pass,schedule_A,schedule_A,22,14,1,Screen 1,Zone1,continue_button,1254.89999999851,NaN,NaN,,NaN,0,1,0,NaN,NaN,NaN,NaN,NaN,trial_right,redBox.png,yellowBox.png,redBox.png,al1_con.png,42,21,NaN,NaN,0.85,0.85,1,1,1,0,Stable,Stable,2.336,0.651,1.685,2.882,expert
105,1671191543989,16/12/2022 11:52:23,1671191546791,0,16/12/2022 11:52:26,109680,37,task-v1fs,repeat-u7ds#1->-repeat-l3h2#1->-repeat-pi7a#1->-repeat-apgu#1,25989827,BLIND,7672976,NaN,complete,NaN,NaN,computer,Desktop or Laptop,Windows 10,Chrome 108.0.0.0,1920x1080,1920x1080,End of Day 1,SLS,90,B,NaN,NaN,NaN,Pass,End of Day 1,Pass,NaN,Pass,NaN,Pass,schedule_A,schedule_A,22,14,2,individual,Zone4,timelimit_screen,999.977000000014,NaN,NaN,,NaN,0,1,0,NaN,NaN,1,NaN,NaN,trial_right,redBox.png,yellowBox.png,redBox.png,al1_con.png,42,21,NaN,NaN,0.85,0.85,1,1,1,0,Stable,Stable,2.336,0.651,1.685,2.882,expert
106,1671191545158,16/12/2022 11:52:25,1671191547973,0,16/12/2022 11:52:27,109680,37,task-v1fs,repeat-u7ds#1->-repeat-l3h2#1->-repeat-pi7a#1->-repeat-apgu#1,25989827,BLIND,7672976,NaN,complete,NaN,NaN,computer,Desktop or Laptop,Windows 10,Chrome 108.0.0.0,1920x1080,1920x1080,End of Day 1,SLS,90,B,NaN,NaN,NaN,Pass,End of Day 1,Pass,NaN,Pass,NaN,Pass,schedule_A,schedule_A,22,14,3,offer,Zone2,response_button_image,1177,NaN,NaN,yellowBox.png,1,0,1,0,NaN,NaN,NaN,NaN,NaN,trial_right,redBox.png,yellowBox.png,redBox.png,al1_con.png,42,21,NaN,NaN,0.85,0.85,1,1,1,0,Stable,Stable,2.336,0.651,1.685,2.882,expert
107,1671191547144,16/12/2022 11:52:27,1671191549957,0,16/12/2022 11:52:29,109680,37,task-v1fs,repeat-u7ds#1->-repeat-l3h2#1->-repeat-pi7a#1->-repeat-apgu#1,25989827,BLIND,7672976,NaN,complete,NaN,NaN,computer,Desktop or Laptop,Windows 10,Chrome 108.0.0.0,1920x1080,1920x1080,End of Day 1,SLS,90,B,NaN,NaN,NaN,Pass,End of Day 1,Pass,NaN,Pass,NaN,Pass,schedule_A,schedule_A,22,14,4,feedback_l,Zone7,timelimit_screen,1999.96699999998,NaN,NaN,,NaN,0,1,0,NaN,NaN,1,NaN,NaN,trial_right,redBox.png,yellowBox.png,redBox.png,al1_con.png,42,21,NaN,NaN,0.85,0.85,1,1,1,0,Stable,Stable,2.336,0.651,1.685,2.882,expert
108,1671191547301,16/12/2022 11:52:27,1671191550107,0,16/12/2022 11:52:30,109680,37,task-v1fs,repeat-u7ds#1->-repeat-l3h2#1->-repeat-pi7a#1->-repeat-apgu#1,25989827,BLIND,7672976,NaN,complete,NaN,NaN,computer,Desktop or Laptop,Windows 10,Chrome 108.0.0.0,1920x1080,1920x1080,End of Day 1,SLS,90,B,NaN,NaN,NaN,Pass,End of Day 1,Pass,NaN,Pass,NaN,Pass,schedule_A,schedule_A,22,14,6,end,Zone1,timelimit_screen,149.957000000024,NaN,NaN,,NaN,0,1,0,NaN,NaN,1,NaN,NaN,trial_right,redBox.png,yellowBox.png,redBox.png,al1_con.png,42,21,NaN,NaN,0.85,0.85,1,1,1,0,Stable,Stable,2.336,0.651,1.685,2.882,expert
109,1671191548113,16/12/2022 11:52:28,1671191550918,0,16/12/2022 11:52:30,109680,37,task-v1fs,repeat-u7ds#1->-repeat-l3h2#1->-repeat-pi7a#1->-repeat-apgu#1,25989827,BLIND,7672976,NaN,complete,NaN,NaN,computer,Desktop or Laptop,Windows 10,Chrome 108.0.0.0,1920x1080,1920x1080,End of Day 1,SLS,90,B,NaN,NaN,NaN,Pass,End of Day 1,Pass,NaN,Pass,NaN,Pass,schedule_A,schedule_A,23,15,1,Screen 1,Zone1,continue_button,799.29999999702,NaN,NaN,,NaN,0,1,0,NaN,NaN,NaN,NaN,NaN,trial_right,redBox.png,yellowBox.png,redBox.png,al1_con.png,43,22,NaN,NaN,0.85,0.85,1,1,1,0,Stable,Stable,3.622,1.319,1.193,1.067,expert
110,1671191549104,16/12/2022 11:52:29,1671191551907,0,16/12/2022 11:52:31,109680,37,task-v1fs,repeat-u7ds#1->-repeat-l3h2#1->-repeat-pi7a#1->-repeat-apgu#1,25989827,BLIND,7672976,NaN,complete,NaN,NaN,computer,Desktop or Laptop,Windows 10,Chrome 108.0.0.0,1920x1080,1920x1080,End of Day 1,SLS,90,B,NaN,NaN,NaN,Pass,End of Day 1,Pass,NaN,Pass,NaN,Pass,schedule_A,schedule_A,23,15,2,individual,Zone4,timelimit_screen,999.967999999993,NaN,NaN,,NaN,0,1,0,NaN,NaN,1,NaN,NaN,trial_right,redBox.png,yellowBox.png,redBox.png,al1_con.png,43,22,NaN,NaN,0.85,0.85,1,1,1,0,Stable,Stable,3.622,1.319,1.193,1.067,expert
111,1671191550397,16/12/2022 11:52:30,1671191553206,0,16/12/2022 11:52:33,109680,37,task-v1fs,repeat-u7ds#1->-repeat-l3h2#1->-repeat-pi7a#1->-repeat-apgu#1,25989827,BLIND,7672976,NaN,complete,NaN,NaN,computer,Desktop or Laptop,Windows 10,Chrome 108.0.0.0,1920x1080,1920x1080,End of Day 1,SLS,90,B,NaN,NaN,NaN,Pass,End of Day 1,Pass,NaN,Pass,NaN,Pass,schedule_A,schedule_A,23,15,3,offer,Zone3,response_button_image,1292.5,NaN,NaN,redBox.png,1,1,0,0,NaN,NaN,NaN,NaN,NaN,trial_right,redBox.png,yellowBox.png,redBox.png,al1_con.png,43,22,NaN,NaN,0.85,0.85,1,1,1,0,Stable,Stable,3.622,1.319,1.193,1.067,expert
112,1671191552385,16/12/2022 11:52:32,1671191555190,0,16/12/2022 11:52:35,109680,37,task-v1fs,repeat-u7ds#1->-repeat-l3h2#1->-repeat-pi7a#1->-repeat-apgu#1,25989827,BLIND,7672976,NaN,complete,NaN,NaN,computer,Desktop or Laptop,Windows 10,Chrome 108.0.0.0,1920x1080,1920x1080,End of Day 1,SLS,90,B,NaN,NaN,NaN,Pass,End of Day 1,Pass,NaN,Pass,NaN,Pass,schedule_A,schedule_A,23,15,5,feedback_r,Zone7,timelimit_screen,1999.959,NaN,NaN,,NaN,0,1,0,NaN,NaN,1,NaN,NaN,trial_right,redBox.png,yellowBox.png,redBox.png,al1_con.png,43,22,NaN,NaN,0.85,0.85,1,1,1,0,Stable,Stable,3.622,1.319,1.193,1.067,expert
113,1671191552529,16/12/2022 11:52:32,1671191555340,0,16/12/2022 11:52:35,109680,37,task-v1fs,repeat-u7ds#1->-repeat-l3h2#1->-repeat-pi7a#1->-repeat-apgu#1,25989827,BLIND,7672976,NaN,complete,NaN,NaN,computer,Desktop or Laptop,Windows 10,Chrome 108.0.0.0,1920x1080,1920x1080,End of Day 1,SLS,90,B,NaN,NaN,NaN,Pass,End of Day 1,Pass,NaN,Pass,NaN,Pass,schedule_A,schedule_A,23,15,6,end,Zone1,timelimit_screen,150.03899999999,NaN,NaN,,NaN,0,1,0,NaN,NaN,1,NaN,NaN,trial_right,redBox.png,yellowBox.png,redBox.png,al1_con.png,43,22,NaN,NaN,0.85,0.85,1,1,1,0,Stable,Stable,3.622,1.319,1.193,1.067,expert
114,1671191553688,16/12/2022 11:52:33,1671191556494,0,16/12/2022 11:52:36,109680,37,task-v1fs,repeat-u7ds#1->-repeat-l3h2#1->-repeat-pi7a#1->-repeat-apgu#1,25989827,BLIND,7672976,NaN,complete,NaN,NaN,computer,Desktop or Laptop,Windows 10,Chrome 108.0.0.0,1920x1080,1920x1080,End of Day 1,SLS,90,B,NaN,NaN,NaN,Pass,End of Day 1,Pass,NaN,Pass,NaN,Pass,schedule_A,schedule_A,24,8,1,Screen 1,Zone1,continue_button,1144.19999999553,NaN,NaN,,NaN,0,1,0,NaN,NaN,NaN,NaN,NaN,trial_left,redBox.png,redBox.png,yellowBox.png,al1_con.png,44,23,NaN,NaN,0.85,0.85,1,1,1,1,Stable,Stable,1.731,0.853,2,1.202,expert
115,1671191554680,16/12/2022 11:52:34,1671191557490,0,16/12/2022 11:52:37,109680,37,task-v1fs,repeat-u7ds#1->-repeat-l3h2#1->-repeat-pi7a#1->-repeat-apgu#1,25989827,BLIND,7672976,NaN,complete,NaN,NaN,computer,Desktop or Laptop,Windows 10,Chrome 108.0.0.0,1920x1080,1920x1080,End of Day 1,SLS,90,B,NaN,NaN,NaN,Pass,End of Day 1,Pass,NaN,Pass,NaN,Pass,schedule_A,schedule_A,24,8,2,individual,Zone4,timelimit_screen,999.936999999976,NaN,NaN,,NaN,0,1,0,NaN,NaN,1,NaN,NaN,trial_left,redBox.png,redBox.png,yellowBox.png,al1_con.png,44,23,NaN,NaN,0.85,0.85,1,1,1,1,Stable,Stable,1.731,0.853,2,1.202,expert
116,1671191555416,16/12/2022 11:52:35,1671191558231,0,16/12/2022 11:52:38,109680,37,task-v1fs,repeat-u7ds#1->-repeat-l3h2#1->-repeat-pi7a#1->-repeat-apgu#1,25989827,BLIND,7672976,NaN,complete,NaN,NaN,computer,Desktop or Laptop,Windows 10,Chrome 108.0.0.0,1920x1080,1920x1080,End of Day 1,SLS,90,B,NaN,NaN,NaN,Pass,End of Day 1,Pass,NaN,Pass,NaN,Pass,schedule_A,schedule_A,24,8,3,offer,Zone2,response_button_image,734.20000000298,NaN,NaN,redBox.png,1,1,0,0,NaN,NaN,NaN,NaN,NaN,trial_left,redBox.png,redBox.png,yellowBox.png,al1_con.png,44,23,NaN,NaN,0.85,0.85,1,1,1,1,Stable,Stable,1.731,0.853,2,1.202,expert
117,1671191557414,16/12/2022 11:52:37,1671191560223,0,16/12/2022 11:52:40,109680,37,task-v1fs,repeat-u7ds#1->-repeat-l3h2#1->-repeat-pi7a#1->-repeat-apgu#1,25989827,BLIND,7672976,NaN,complete,NaN,NaN,computer,Desktop or Laptop,Windows 10,Chrome 108.0.0.0,1920x1080,1920x1080,End of Day 1,SLS,90,B,NaN,NaN,NaN,Pass,End of Day 1,Pass,NaN,Pass,NaN,Pass,schedule_A,schedule_A,24,8,4,feedback_l,Zone7,timelimit_screen,1999.954,NaN,NaN,,NaN,0,1,0,NaN,NaN,1,NaN,NaN,trial_left,redBox.png,redBox.png,yellowBox.png,al1_con.png,44,23,NaN,NaN,0.85,0.85,1,1,1,1,Stable,Stable,1.731,0.853,2,1.202,expert
118,1671191557565,16/12/2022 11:52:37,1671191560373,0,16/12/2022 11:52:40,109680,37,task-v1fs,repeat-u7ds#1->-repeat-l3h2#1->-repeat-pi7a#1->-repeat-apgu#1,25989827,BLIND,7672976,NaN,complete,NaN,NaN,computer,Desktop or Laptop,Windows 10,Chrome 108.0.0.0,1920x1080,1920x1080,End of Day 1,SLS,90,B,NaN,NaN,NaN,Pass,End of Day 1,Pass,NaN,Pass,NaN,Pass,schedule_A,schedule_A,24,8,6,end,Zone1,timelimit_screen,149.960999999981,NaN,NaN,,NaN,0,1,0,NaN,NaN,1,NaN,NaN,trial_left,redBox.png,redBox.png,yellowBox.png,al1_con.png,44,23,NaN,NaN,0.85,0.85,1,1,1,1,Stable,Stable,1.731,0.853,2,1.202,expert
119,1671191558311,16/12/2022 11:52:38,1671191561127,0,16/12/2022 11:52:41,109680,37,task-v1fs,repeat-u7ds#1->-repeat-l3h2#1->-repeat-pi7a#1->-repeat-apgu#1,25989827,BLIND,7672976,NaN,complete,NaN,NaN,computer,Desktop or Laptop,Windows 10,Chrome 108.0.0.0,1920x1080,1920x1080,End of Day 1,SLS,90,B,NaN,NaN,NaN,Pass,End of Day 1,Pass,NaN,Pass,NaN,Pass,schedule_A,schedule_A,25,16,1,Screen 1,Zone1,continue_button,742.39999999851,NaN,NaN,,NaN,0,1,0,NaN,NaN,NaN,NaN,NaN,trial_right,redBox.png,yellowBox.png,redBox.png,al1_con.png,45,24,NaN,NaN,0.85,0.85,1,1,1,0,Stable,Stable,2.109,1.798,1.508,2.782,expert
120,1671191559307,16/12/2022 11:52:39,1671191562124,0,16/12/2022 11:52:42,109680,37,task-v1fs,repeat-u7ds#1->-repeat-l3h2#1->-repeat-pi7a#1->-repeat-apgu#1,25989827,BLIND,7672976,NaN,complete,NaN,NaN,computer,Desktop or Laptop,Windows 10,Chrome 108.0.0.0,1920x1080,1920x1080,End of Day 1,SLS,90,B,NaN,NaN,NaN,Pass,End of Day 1,Pass,NaN,Pass,NaN,Pass,schedule_A,schedule_A,25,16,2,individual,Zone4,timelimit_screen,999.964000000007,NaN,NaN,,NaN,0,1,0,NaN,NaN,1,NaN,NaN,trial_right,redBox.png,yellowBox.png,redBox.png,al1_con.png,45,24,NaN,NaN,0.85,0.85,1,1,1,0,Stable,Stable,2.109,1.798,1.508,2.782,expert
121,1671191560841,16/12/2022 11:52:40,1671191563647,0,16/12/2022 11:52:43,109680,37,task-v1fs,repeat-u7ds#1->-repeat-l3h2#1->-repeat-pi7a#1->-repeat-apgu#1,25989827,BLIND,7672976,NaN,complete,NaN,NaN,computer,Desktop or Laptop,Windows 10,Chrome 108.0.0.0,1920x1080,1920x1080,End of Day 1,SLS,90,B,NaN,NaN,NaN,Pass,End of Day 1,Pass,NaN,Pass,NaN,Pass,schedule_A,schedule_A,25,16,3,offer,Zone3,response_button_image,1517.20000000298,NaN,NaN,redBox.png,1,1,0,0,NaN,NaN,NaN,NaN,NaN,trial_right,redBox.png,yellowBox.png,redBox.png,al1_con.png,45,24,NaN,NaN,0.85,0.85,1,1,1,0,Stable,Stable,2.109,1.798,1.508,2.782,expert
122,1671191562838,16/12/2022 11:52:42,1671191565640,0,16/12/2022 11:52:45,109680,37,task-v1fs,repeat-u7ds#1->-repeat-l3h2#1->-repeat-pi7a#1->-repeat-apgu#1,25989827,BLIND,7672976,NaN,complete,NaN,NaN,computer,Desktop or Laptop,Windows 10,Chrome 108.0.0.0,1920x1080,1920x1080,End of Day 1,SLS,90,B,NaN,NaN,NaN,Pass,End of Day 1,Pass,NaN,Pass,NaN,Pass,schedule_A,schedule_A,25,16,5,feedback_r,Zone7,timelimit_screen,1999.94,NaN,NaN,,NaN,0,1,0,NaN,NaN,1,NaN,NaN,trial_right,redBox.png,yellowBox.png,redBox.png,al1_con.png,45,24,NaN,NaN,0.85,0.85,1,1,1,0,Stable,Stable,2.109,1.798,1.508,2.782,expert
123,1671191562978,16/12/2022 11:52:42,1671191565790,0,16/12/2022 11:52:45,109680,37,task-v1fs,repeat-u7ds#1->-repeat-l3h2#1->-repeat-pi7a#1->-repeat-apgu#1,25989827,BLIND,7672976,NaN,complete,NaN,NaN,computer,Desktop or Laptop,Windows 10,Chrome 108.0.0.0,1920x1080,1920x1080,End of Day 1,SLS,90,B,NaN,NaN,NaN,Pass,End of Day 1,Pass,NaN,Pass,NaN,Pass,schedule_A,schedule_A,25,16,6,end,Zone1,timelimit_screen,149.986999999994,NaN,NaN,,NaN,0,1,0,NaN,NaN,1,NaN,NaN,trial_right,redBox.png,yellowBox.png,redBox.png,al1_con.png,45,24,NaN,NaN,0.85,0.85,1,1,1,0,Stable,Stable,2.109,1.798,1.508,2.782,expert
124,1671191564565,16/12/2022 11:52:44,1671191567368,0,16/12/2022 11:52:47,109680,37,task-v1fs,repeat-u7ds#1->-repeat-l3h2#1->-repeat-pi7a#1->-repeat-apgu#1,25989827,BLIND,7672976,NaN,complete,NaN,NaN,computer,Desktop or Laptop,Windows 10,Chrome 108.0.0.0,1920x1080,1920x1080,End of Day 1,SLS,90,B,NaN,NaN,NaN,Pass,End of Day 1,Pass,NaN,Pass,NaN,Pass,schedule_A,schedule_A,26,9,1,Screen 1,Zone1,continue_button,1565.60000000149,NaN,NaN,,NaN,0,1,0,NaN,NaN,NaN,NaN,NaN,trial_left,redBox.png,redBox.png,yellowBox.png,al1_con.png,46,25,NaN,NaN,0.85,0.85,1,1,1,1,Stable,Stable,2.916,1.294,1.962,2.361,expert
125,1671191565546,16/12/2022 11:52:45,1671191568357,0,16/12/2022 11:52:48,109680,37,task-v1fs,repeat-u7ds#1->-repeat-l3h2#1->-repeat-pi7a#1->-repeat-apgu#1,25989827,BLIND,7672976,NaN,complete,NaN,NaN,computer,Desktop or Laptop,Windows 10,Chrome 108.0.0.0,1920x1080,1920x1080,End of Day 1,SLS,90,B,NaN,NaN,NaN,Pass,End of Day 1,Pass,NaN,Pass,NaN,Pass,schedule_A,schedule_A,26,9,2,individual,Zone4,timelimit_screen,999.977999999974,NaN,NaN,,NaN,0,1,0,NaN,NaN,1,NaN,NaN,trial_left,redBox.png,redBox.png,yellowBox.png,al1_con.png,46,25,NaN,NaN,0.85,0.85,1,1,1,1,Stable,Stable,2.916,1.294,1.962,2.361,expert
126,1671191566565,16/12/2022 11:52:46,1671191569376,0,16/12/2022 11:52:49,109680,37,task-v1fs,repeat-u7ds#1->-repeat-l3h2#1->-repeat-pi7a#1->-repeat-apgu#1,25989827,BLIND,7672976,NaN,complete,NaN,NaN,computer,Desktop or Laptop,Windows 10,Chrome 108.0.0.0,1920x1080,1920x1080,End of Day 1,SLS,90,B,NaN,NaN,NaN,Pass,End of Day 1,Pass,NaN,Pass,NaN,Pass,schedule_A,schedule_A,26,9,3,offer,Zone2,response_button_image,1013.29999999702,NaN,NaN,redBox.png,1,1,0,0,NaN,NaN,NaN,NaN,NaN,trial_left,redBox.png,redBox.png,yellowBox.png,al1_con.png,46,25,NaN,NaN,0.85,0.85,1,1,1,1,Stable,Stable,2.916,1.294,1.962,2.361,expert
127,1671191568567,16/12/2022 11:52:48,1671191571373,0,16/12/2022 11:52:51,109680,37,task-v1fs,repeat-u7ds#1->-repeat-l3h2#1->-repeat-pi7a#1->-repeat-apgu#1,25989827,BLIND,7672976,NaN,complete,NaN,NaN,computer,Desktop or Laptop,Windows 10,Chrome 108.0.0.0,1920x1080,1920x1080,End of Day 1,SLS,90,B,NaN,NaN,NaN,Pass,End of Day 1,Pass,NaN,Pass,NaN,Pass,schedule_A,schedule_A,26,9,4,feedback_l,Zone7,timelimit_screen,1999.96099999998,NaN,NaN,,NaN,0,1,0,NaN,NaN,1,NaN,NaN,trial_left,redBox.png,redBox.png,yellowBox.png,al1_con.png,46,25,NaN,NaN,0.85,0.85,1,1,1,1,Stable,Stable,2.916,1.294,1.962,2.361,expert
128,1671191568712,16/12/2022 11:52:48,1671191571523,0,16/12/2022 11:52:51,109680,37,task-v1fs,repeat-u7ds#1->-repeat-l3h2#1->-repeat-pi7a#1->-repeat-apgu#1,25989827,BLIND,7672976,NaN,complete,NaN,NaN,computer,Desktop or Laptop,Windows 10,Chrome 108.0.0.0,1920x1080,1920x1080,End of Day 1,SLS,90,B,NaN,NaN,NaN,Pass,End of Day 1,Pass,NaN,Pass,NaN,Pass,schedule_A,schedule_A,26,9,6,end,Zone1,timelimit_screen,150.055000000022,NaN,NaN,,NaN,0,1,0,NaN,NaN,1,NaN,NaN,trial_left,redBox.png,redBox.png,yellowBox.png,al1_con.png,46,25,NaN,NaN,0.85,0.85,1,1,1,1,Stable,Stable,2.916,1.294,1.962,2.361,expert
129,1671191569530,16/12/2022 11:52:49,1671191572336,0,16/12/2022 11:52:52,109680,37,task-v1fs,repeat-u7ds#1->-repeat-l3h2#1->-repeat-pi7a#1->-repeat-apgu#1,25989827,BLIND,7672976,NaN,complete,NaN,NaN,computer,Desktop or Laptop,Windows 10,Chrome 108.0.0.0,1920x1080,1920x1080,End of Day 1,SLS,90,B,NaN,NaN,NaN,Pass,End of Day 1,Pass,NaN,Pass,NaN,Pass,schedule_A,schedule_A,27,17,1,Screen 1,Zone1,continue_button,802.10000000149,NaN,NaN,,NaN,0,1,0,NaN,NaN,NaN,NaN,NaN,trial_right,redBox.png,yellowBox.png,redBox.png,al1_con.png,47,26,NaN,NaN,0.85,0.85,1,1,1,0,Stable,Stable,2.487,1.697,1.13,1.286,expert
130,1671191570510,16/12/2022 11:52:50,1671191573323,0,16/12/2022 11:52:53,109680,37,task-v1fs,repeat-u7ds#1->-repeat-l3h2#1->-repeat-pi7a#1->-repeat-apgu#1,25989827,BLIND,7672976,NaN,complete,NaN,NaN,computer,Desktop or Laptop,Windows 10,Chrome 108.0.0.0,1920x1080,1920x1080,End of Day 1,SLS,90,B,NaN,NaN,NaN,Pass,End of Day 1,Pass,NaN,Pass,NaN,Pass,schedule_A,schedule_A,27,17,2,individual,Zone4,timelimit_screen,999.953999999998,NaN,NaN,,NaN,0,1,0,NaN,NaN,1,NaN,NaN,trial_right,redBox.png,yellowBox.png,redBox.png,al1_con.png,47,26,NaN,NaN,0.85,0.85,1,1,1,0,Stable,Stable,2.487,1.697,1.13,1.286,expert
131,1671191571512,16/12/2022 11:52:51,1671191574320,0,16/12/2022 11:52:54,109680,37,task-v1fs,repeat-u7ds#1->-repeat-l3h2#1->-repeat-pi7a#1->-repeat-apgu#1,25989827,BLIND,7672976,NaN,complete,NaN,NaN,computer,Desktop or Laptop,Windows 10,Chrome 108.0.0.0,1920x1080,1920x1080,End of Day 1,SLS,90,B,NaN,NaN,NaN,Pass,End of Day 1,Pass,NaN,Pass,NaN,Pass,schedule_A,schedule_A,27,17,3,offer,Zone3,response_button_image,989.79999999702,NaN,NaN,redBox.png,1,1,0,0,NaN,NaN,NaN,NaN,NaN,trial_right,redBox.png,yellowBox.png,redBox.png,al1_con.png,47,26,NaN,NaN,0.85,0.85,1,1,1,0,Stable,Stable,2.487,1.697,1.13,1.286,expert
132,1671191573504,16/12/2022 11:52:53,1671191576307,0,16/12/2022 11:52:56,109680,37,task-v1fs,repeat-u7ds#1->-repeat-l3h2#1->-repeat-pi7a#1->-repeat-apgu#1,25989827,BLIND,7672976,NaN,complete,NaN,NaN,computer,Desktop or Laptop,Windows 10,Chrome 108.0.0.0,1920x1080,1920x1080,End of Day 1,SLS,90,B,NaN,NaN,NaN,Pass,End of Day 1,Pass,NaN,Pass,NaN,Pass,schedule_A,schedule_A,27,17,5,feedback_r,Zone7,timelimit_screen,1999.967,NaN,NaN,,NaN,0,1,0,NaN,NaN,1,NaN,NaN,trial_right,redBox.png,yellowBox.png,redBox.png,al1_con.png,47,26,NaN,NaN,0.85,0.85,1,1,1,0,Stable,Stable,2.487,1.697,1.13,1.286,expert
133,1671191573645,16/12/2022 11:52:53,1671191576456,0,16/12/2022 11:52:56,109680,37,task-v1fs,repeat-u7ds#1->-repeat-l3h2#1->-repeat-pi7a#1->-repeat-apgu#1,25989827,BLIND,7672976,NaN,complete,NaN,NaN,computer,Desktop or Laptop,Windows 10,Chrome 108.0.0.0,1920x1080,1920x1080,End of Day 1,SLS,90,B,NaN,NaN,NaN,Pass,End of Day 1,Pass,NaN,Pass,NaN,Pass,schedule_A,schedule_A,27,17,6,end,Zone1,timelimit_screen,150.014999999985,NaN,NaN,,NaN,0,1,0,NaN,NaN,1,NaN,NaN,trial_right,redBox.png,yellowBox.png,redBox.png,al1_con.png,47,26,NaN,NaN,0.85,0.85,1,1,1,0,Stable,Stable,2.487,1.697,1.13,1.286,expert
134,1671191578695,16/12/2022 11:52:58,1671191581505,0,16/12/2022 11:53:01,109680,37,task-v1fs,repeat-u7ds#1->-repeat-l3h2#1->-repeat-pi7a#1->-repeat-apgu#1,25989827,BLIND,7672976,NaN,complete,NaN,NaN,computer,Desktop or Laptop,Windows 10,Chrome 108.0.0.0,1920x1080,1920x1080,End of Day 1,SLS,90,B,NaN,NaN,NaN,Pass,End of Day 1,Pass,NaN,Pass,NaN,Pass,schedule_A,schedule_A,28,10,1,Screen 1,Zone1,continue_button,5034,NaN,NaN,,NaN,0,1,0,NaN,NaN,NaN,NaN,NaN,trial_left,redBox.png,redBox.png,yellowBox.png,al1_con.png,48,27,NaN,NaN,0.85,0.85,1,1,1,1,Stable,Stable,3.824,1.634,0.992,2.244,expert
135,1671191579684,16/12/2022 11:52:59,1671191582490,0,16/12/2022 11:53:02,109680,37,task-v1fs,repeat-u7ds#1->-repeat-l3h2#1->-repeat-pi7a#1->-repeat-apgu#1,25989827,BLIND,7672976,NaN,complete,NaN,NaN,computer,Desktop or Laptop,Windows 10,Chrome 108.0.0.0,1920x1080,1920x1080,End of Day 1,SLS,90,B,NaN,NaN,NaN,Pass,End of Day 1,Pass,NaN,Pass,NaN,Pass,schedule_A,schedule_A,28,10,2,individual,Zone4,timelimit_screen,1000.00100000002,NaN,NaN,,NaN,0,1,0,NaN,NaN,1,NaN,NaN,trial_left,redBox.png,redBox.png,yellowBox.png,al1_con.png,48,27,NaN,NaN,0.85,0.85,1,1,1,1,Stable,Stable,3.824,1.634,0.992,2.244,expert
136,1671191581501,16/12/2022 11:53:01,1671191584313,0,16/12/2022 11:53:04,109680,37,task-v1fs,repeat-u7ds#1->-repeat-l3h2#1->-repeat-pi7a#1->-repeat-apgu#1,25989827,BLIND,7672976,NaN,complete,NaN,NaN,computer,Desktop or Laptop,Windows 10,Chrome 108.0.0.0,1920x1080,1920x1080,End of Day 1,SLS,90,B,NaN,NaN,NaN,Pass,End of Day 1,Pass,NaN,Pass,NaN,Pass,schedule_A,schedule_A,28,10,3,offer,Zone2,response_button_image,1817.79999999702,NaN,NaN,redBox.png,1,1,0,0,NaN,NaN,NaN,NaN,NaN,trial_left,redBox.png,redBox.png,yellowBox.png,al1_con.png,48,27,NaN,NaN,0.85,0.85,1,1,1,1,Stable,Stable,3.824,1.634,0.992,2.244,expert
137,1671191583499,16/12/2022 11:53:03,1671191586306,0,16/12/2022 11:53:06,109680,37,task-v1fs,repeat-u7ds#1->-repeat-l3h2#1->-repeat-pi7a#1->-repeat-apgu#1,25989827,BLIND,7672976,NaN,complete,NaN,NaN,computer,Desktop or Laptop,Windows 10,Chrome 108.0.0.0,1920x1080,1920x1080,End of Day 1,SLS,90,B,NaN,NaN,NaN,Pass,End of Day 1,Pass,NaN,Pass,NaN,Pass,schedule_A,schedule_A,28,10,4,feedback_l,Zone7,timelimit_screen,1999.967,NaN,NaN,,NaN,0,1,0,NaN,NaN,1,NaN,NaN,trial_left,redBox.png,redBox.png,yellowBox.png,al1_con.png,48,27,NaN,NaN,0.85,0.85,1,1,1,1,Stable,Stable,3.824,1.634,0.992,2.244,expert
138,1671191583700,16/12/2022 11:53:03,1671191586456,0,16/12/2022 11:53:06,109680,37,task-v1fs,repeat-u7ds#1->-repeat-l3h2#1->-repeat-pi7a#1->-repeat-apgu#1,25989827,BLIND,7672976,NaN,complete,NaN,NaN,computer,Desktop or Laptop,Windows 10,Chrome 108.0.0.0,1920x1080,1920x1080,End of Day 1,SLS,90,B,NaN,NaN,NaN,Pass,End of Day 1,Pass,NaN,Pass,NaN,Pass,schedule_A,schedule_A,28,10,6,end,Zone1,timelimit_screen,150.030999999988,NaN,NaN,,NaN,0,1,0,NaN,NaN,1,NaN,NaN,trial_left,redBox.png,redBox.png,yellowBox.png,al1_con.png,48,27,NaN,NaN,0.85,0.85,1,1,1,1,Stable,Stable,3.824,1.634,0.992,2.244,expert
139,1671191586546,16/12/2022 11:53:06,1671191589346,0,16/12/2022 11:53:09,109680,37,task-v1fs,repeat-u7ds#1->-repeat-l3h2#1->-repeat-pi7a#1->-repeat-apgu#1,25989827,BLIND,7672976,NaN,complete,NaN,NaN,computer,Desktop or Laptop,Windows 10,Chrome 108.0.0.0,1920x1080,1920x1080,End of Day 1,SLS,90,B,NaN,NaN,NaN,Pass,End of Day 1,Pass,NaN,Pass,NaN,Pass,schedule_A,schedule_A,29,11,1,Screen 1,Zone1,continue_button,2879.29999999702,NaN,NaN,,NaN,0,1,0,NaN,NaN,NaN,NaN,NaN,trial_left,redBox.png,redBox.png,yellowBox.png,al1_con.png,49,28,NaN,NaN,0.85,0.85,1,1,1,1,Stable,Stable,2.84,1.937,1.723,2.815,expert
140,1671191587532,16/12/2022 11:53:07,1671191590340,0,16/12/2022 11:53:10,109680,37,task-v1fs,repeat-u7ds#1->-repeat-l3h2#1->-repeat-pi7a#1->-repeat-apgu#1,25989827,BLIND,7672976,NaN,complete,NaN,NaN,computer,Desktop or Laptop,Windows 10,Chrome 108.0.0.0,1920x1080,1920x1080,End of Day 1,SLS,90,B,NaN,NaN,NaN,Pass,End of Day 1,Pass,NaN,Pass,NaN,Pass,schedule_A,schedule_A,29,11,2,individual,Zone4,timelimit_screen,999.926000000007,NaN,NaN,,NaN,0,1,0,NaN,NaN,1,NaN,NaN,trial_left,redBox.png,redBox.png,yellowBox.png,al1_con.png,49,28,NaN,NaN,0.85,0.85,1,1,1,1,Stable,Stable,2.84,1.937,1.723,2.815,expert
141,1671191588173,16/12/2022 11:53:08,1671191590986,0,16/12/2022 11:53:10,109680,37,task-v1fs,repeat-u7ds#1->-repeat-l3h2#1->-repeat-pi7a#1->-repeat-apgu#1,25989827,BLIND,7672976,NaN,complete,NaN,NaN,computer,Desktop or Laptop,Windows 10,Chrome 108.0.0.0,1920x1080,1920x1080,End of Day 1,SLS,90,B,NaN,NaN,NaN,Pass,End of Day 1,Pass,NaN,Pass,NaN,Pass,schedule_A,schedule_A,29,11,3,offer,Zone2,response_button_image,639.90000000596,NaN,NaN,redBox.png,1,1,0,0,NaN,NaN,NaN,NaN,NaN,trial_left,redBox.png,redBox.png,yellowBox.png,al1_con.png,49,28,NaN,NaN,0.85,0.85,1,1,1,1,Stable,Stable,2.84,1.937,1.723,2.815,expert
142,1671191590164,16/12/2022 11:53:10,1671191592973,0,16/12/2022 11:53:12,109680,37,task-v1fs,repeat-u7ds#1->-repeat-l3h2#1->-repeat-pi7a#1->-repeat-apgu#1,25989827,BLIND,7672976,NaN,complete,NaN,NaN,computer,Desktop or Laptop,Windows 10,Chrome 108.0.0.0,1920x1080,1920x1080,End of Day 1,SLS,90,B,NaN,NaN,NaN,Pass,End of Day 1,Pass,NaN,Pass,NaN,Pass,schedule_A,schedule_A,29,11,4,feedback_l,Zone7,timelimit_screen,2000.01499999998,NaN,NaN,,NaN,0,1,0,NaN,NaN,1,NaN,NaN,trial_left,redBox.png,redBox.png,yellowBox.png,al1_con.png,49,28,NaN,NaN,0.85,0.85,1,1,1,1,Stable,Stable,2.84,1.937,1.723,2.815,expert
143,1671191590313,16/12/2022 11:53:10,1671191593123,0,16/12/2022 11:53:13,109680,37,task-v1fs,repeat-u7ds#1->-repeat-l3h2#1->-repeat-pi7a#1->-repeat-apgu#1,25989827,BLIND,7672976,NaN,complete,NaN,NaN,computer,Desktop or Laptop,Windows 10,Chrome 108.0.0.0,1920x1080,1920x1080,End of Day 1,SLS,90,B,NaN,NaN,NaN,Pass,End of Day 1,Pass,NaN,Pass,NaN,Pass,schedule_A,schedule_A,29,11,6,end,Zone1,timelimit_screen,149.950000000012,NaN,NaN,,NaN,0,1,0,NaN,NaN,1,NaN,NaN,trial_left,redBox.png,redBox.png,yellowBox.png,al1_con.png,49,28,NaN,NaN,0.85,0.85,1,1,1,1,Stable,Stable,2.84,1.937,1.723,2.815,expert
144,1671191592177,16/12/2022 11:53:12,1671191594978,0,16/12/2022 11:53:14,109680,37,task-v1fs,repeat-u7ds#1->-repeat-l3h2#1->-repeat-pi7a#1->-repeat-apgu#1,25989827,BLIND,7672976,NaN,complete,NaN,NaN,computer,Desktop or Laptop,Windows 10,Chrome 108.0.0.0,1920x1080,1920x1080,End of Day 1,SLS,90,B,NaN,NaN,NaN,Pass,End of Day 1,Pass,NaN,Pass,NaN,Pass,schedule_A,schedule_A,30,18,1,Screen 1,Zone1,continue_button,1844.39999999851,NaN,NaN,,NaN,0,1,0,NaN,NaN,NaN,NaN,NaN,trial_right,redBox.png,yellowBox.png,redBox.png,al1_con.png,50,29,NaN,NaN,0.85,0.85,1,1,1,0,Stable,Stable,2.941,1.71,0.664,1.336,expert
145,1671191593161,16/12/2022 11:53:13,1671191595973,0,16/12/2022 11:53:15,109680,37,task-v1fs,repeat-u7ds#1->-repeat-l3h2#1->-repeat-pi7a#1->-repeat-apgu#1,25989827,BLIND,7672976,NaN,complete,NaN,NaN,computer,Desktop or Laptop,Windows 10,Chrome 108.0.0.0,1920x1080,1920x1080,End of Day 1,SLS,90,B,NaN,NaN,NaN,Pass,End of Day 1,Pass,NaN,Pass,NaN,Pass,schedule_A,schedule_A,30,18,2,individual,Zone4,timelimit_screen,999.983000000007,NaN,NaN,,NaN,0,1,0,NaN,NaN,1,NaN,NaN,trial_right,redBox.png,yellowBox.png,redBox.png,al1_con.png,50,29,NaN,NaN,0.85,0.85,1,1,1,0,Stable,Stable,2.941,1.71,0.664,1.336,expert
146,1671191594163,16/12/2022 11:53:14,1671191596979,0,16/12/2022 11:53:16,109680,37,task-v1fs,repeat-u7ds#1->-repeat-l3h2#1->-repeat-pi7a#1->-repeat-apgu#1,25989827,BLIND,7672976,NaN,complete,NaN,NaN,computer,Desktop or Laptop,Windows 10,Chrome 108.0.0.0,1920x1080,1920x1080,End of Day 1,SLS,90,B,NaN,NaN,NaN,Pass,End of Day 1,Pass,NaN,Pass,NaN,Pass,schedule_A,schedule_A,30,18,3,offer,Zone3,response_button_image,999.19999999553,NaN,NaN,redBox.png,1,1,0,0,NaN,NaN,NaN,NaN,NaN,trial_right,redBox.png,yellowBox.png,redBox.png,al1_con.png,50,29,NaN,NaN,0.85,0.85,1,1,1,0,Stable,Stable,2.941,1.71,0.664,1.336,expert
147,1671191596161,16/12/2022 11:53:16,1671191598973,0,16/12/2022 11:53:18,109680,37,task-v1fs,repeat-u7ds#1->-repeat-l3h2#1->-repeat-pi7a#1->-repeat-apgu#1,25989827,BLIND,7672976,NaN,complete,NaN,NaN,computer,Desktop or Laptop,Windows 10,Chrome 108.0.0.0,1920x1080,1920x1080,End of Day 1,SLS,90,B,NaN,NaN,NaN,Pass,End of Day 1,Pass,NaN,Pass,NaN,Pass,schedule_A,schedule_A,30,18,5,feedback_r,Zone7,timelimit_screen,1999.99000000002,NaN,NaN,,NaN,0,1,0,NaN,NaN,1,NaN,NaN,trial_right,redBox.png,yellowBox.png,redBox.png,al1_con.png,50,29,NaN,NaN,0.85,0.85,1,1,1,0,Stable,Stable,2.941,1.71,0.664,1.336,expert
148,1671191596311,16/12/2022 11:53:16,1671191599123,0,16/12/2022 11:53:19,109680,37,task-v1fs,repeat-u7ds#1->-repeat-l3h2#1->-repeat-pi7a#1->-repeat-apgu#1,25989827,BLIND,7672976,NaN,complete,NaN,NaN,computer,Desktop or Laptop,Windows 10,Chrome 108.0.0.0,1920x1080,1920x1080,End of Day 1,SLS,90,B,NaN,NaN,NaN,Pass,End of Day 1,Pass,NaN,Pass,NaN,Pass,schedule_A,schedule_A,30,18,6,end,Zone1,timelimit_screen,149.959999999992,NaN,NaN,,NaN,0,1,0,NaN,NaN,1,NaN,NaN,trial_right,redBox.png,yellowBox.png,redBox.png,al1_con.png,50,29,NaN,NaN,0.85,0.85,1,1,1,0,Stable,Stable,2.941,1.71,0.664,1.336,expert
149,1671191597491,16/12/2022 11:53:17,1671191600291,0,16/12/2022 11:53:20,109680,37,task-v1fs,repeat-u7ds#1->-repeat-l3h2#1->-repeat-pi7a#1->-repeat-apgu#1,25989827,BLIND,7672976,NaN,complete,NaN,NaN,computer,Desktop or Laptop,Windows 10,Chrome 108.0.0.0,1920x1080,1920x1080,End of Day 1,SLS,90,B,NaN,NaN,NaN,Pass,End of Day 1,Pass,NaN,Pass,NaN,Pass,schedule_A,schedule_A,31,12,1,Screen 1,Zone1,continue_button,1158.10000000149,NaN,NaN,,NaN,0,1,0,NaN,NaN,NaN,NaN,NaN,trial_left,redBox.png,redBox.png,yellowBox.png,al1_con.png,61,30,NaN,NaN,0.85,0.85,1,1,1,1,Stable,Stable,2.79,1.735,0.601,2.345,expert
150,1671191598477,16/12/2022 11:53:18,1671191601289,0,16/12/2022 11:53:21,109680,37,task-v1fs,repeat-u7ds#1->-repeat-l3h2#1->-repeat-pi7a#1->-repeat-apgu#1,25989827,BLIND,7672976,NaN,complete,NaN,NaN,computer,Desktop or Laptop,Windows 10,Chrome 108.0.0.0,1920x1080,1920x1080,End of Day 1,SLS,90,B,NaN,NaN,NaN,Pass,End of Day 1,Pass,NaN,Pass,NaN,Pass,schedule_A,schedule_A,31,12,2,individual,Zone4,timelimit_screen,999.968999999983,NaN,NaN,,NaN,0,1,0,NaN,NaN,1,NaN,NaN,trial_left,redBox.png,redBox.png,yellowBox.png,al1_con.png,61,30,NaN,NaN,0.85,0.85,1,1,1,1,Stable,Stable,2.79,1.735,0.601,2.345,expert
151,1671191600490,16/12/2022 11:53:20,1671191603292,0,16/12/2022 11:53:23,109680,37,task-v1fs,repeat-u7ds#1->-repeat-l3h2#1->-repeat-pi7a#1->-repeat-apgu#1,25989827,BLIND,7672976,NaN,complete,NaN,NaN,computer,Desktop or Laptop,Windows 10,Chrome 108.0.0.0,1920x1080,1920x1080,End of Day 1,SLS,90,B,NaN,NaN,NaN,Pass,End of Day 1,Pass,NaN,Pass,NaN,Pass,schedule_A,schedule_A,31,12,3,offer,Zone2,response_button_image,1996.10000000149,NaN,NaN,redBox.png,1,1,0,0,NaN,NaN,NaN,NaN,NaN,trial_left,redBox.png,redBox.png,yellowBox.png,al1_con.png,61,30,NaN,NaN,0.85,0.85,1,1,1,1,Stable,Stable,2.79,1.735,0.601,2.345,expert
152,1671191602483,16/12/2022 11:53:22,1671191605289,0,16/12/2022 11:53:25,109680,37,task-v1fs,repeat-u7ds#1->-repeat-l3h2#1->-repeat-pi7a#1->-repeat-apgu#1,25989827,BLIND,7672976,NaN,complete,NaN,NaN,computer,Desktop or Laptop,Windows 10,Chrome 108.0.0.0,1920x1080,1920x1080,End of Day 1,SLS,90,B,NaN,NaN,NaN,Pass,End of Day 1,Pass,NaN,Pass,NaN,Pass,schedule_A,schedule_A,31,12,4,feedback_l,Zone7,timelimit_screen,1999.951,NaN,NaN,,NaN,0,1,0,NaN,NaN,1,NaN,NaN,trial_left,redBox.png,redBox.png,yellowBox.png,al1_con.png,61,30,NaN,NaN,0.85,0.85,1,1,1,1,Stable,Stable,2.79,1.735,0.601,2.345,expert
153,1671191602630,16/12/2022 11:53:22,1671191605439,0,16/12/2022 11:53:25,109680,37,task-v1fs,repeat-u7ds#1->-repeat-l3h2#1->-repeat-pi7a#1->-repeat-apgu#1,25989827,BLIND,7672976,NaN,complete,NaN,NaN,computer,Desktop or Laptop,Windows 10,Chrome 108.0.0.0,1920x1080,1920x1080,End of Day 1,SLS,90,B,NaN,NaN,NaN,Pass,End of Day 1,Pass,NaN,Pass,NaN,Pass,schedule_A,schedule_A,31,12,6,end,Zone1,timelimit_screen,150.021000000008,NaN,NaN,,NaN,0,1,0,NaN,NaN,1,NaN,NaN,trial_left,redBox.png,redBox.png,yellowBox.png,al1_con.png,61,30,NaN,NaN,0.85,0.85,1,1,1,1,Stable,Stable,2.79,1.735,0.601,2.345,expert
154,1671191603657,16/12/2022 11:53:23,1671191606468,0,16/12/2022 11:53:26,109680,37,task-v1fs,repeat-u7ds#1->-repeat-l3h2#1->-repeat-pi7a#1->-repeat-apgu#1,25989827,BLIND,7672976,NaN,complete,NaN,NaN,computer,Desktop or Laptop,Windows 10,Chrome 108.0.0.0,1920x1080,1920x1080,End of Day 1,SLS,90,B,NaN,NaN,NaN,Pass,End of Day 1,Pass,NaN,Pass,NaN,Pass,schedule_A,schedule_A,32,19,1,Screen 1,Zone1,continue_button,1016.19999999553,NaN,NaN,,NaN,0,1,0,NaN,NaN,NaN,NaN,NaN,trial_right,redBox.png,redBox.png,yellowBox.png,al1_con.png,62,31,NaN,NaN,0.85,0.15,1,0,0,1,Stable,Volatile,2.538,1.672,1.143,1.555,expert
155,1671191604646,16/12/2022 11:53:24,1671191607456,0,16/12/2022 11:53:27,109680,37,task-v1fs,repeat-u7ds#1->-repeat-l3h2#1->-repeat-pi7a#1->-repeat-apgu#1,25989827,BLIND,7672976,NaN,complete,NaN,NaN,computer,Desktop or Laptop,Windows 10,Chrome 108.0.0.0,1920x1080,1920x1080,End of Day 1,SLS,90,B,NaN,NaN,NaN,Pass,End of Day 1,Pass,NaN,Pass,NaN,Pass,schedule_A,schedule_A,32,19,2,individual,Zone4,timelimit_screen,999.928000000014,NaN,NaN,,NaN,0,1,0,NaN,NaN,1,NaN,NaN,trial_right,redBox.png,redBox.png,yellowBox.png,al1_con.png,62,31,NaN,NaN,0.85,0.15,1,0,0,1,Stable,Volatile,2.538,1.672,1.143,1.555,expert
156,1671191605286,16/12/2022 11:53:25,1671191608092,0,16/12/2022 11:53:28,109680,37,task-v1fs,repeat-u7ds#1->-repeat-l3h2#1->-repeat-pi7a#1->-repeat-apgu#1,25989827,BLIND,7672976,NaN,complete,NaN,NaN,computer,Desktop or Laptop,Windows 10,Chrome 108.0.0.0,1920x1080,1920x1080,End of Day 1,SLS,90,B,NaN,NaN,NaN,Pass,End of Day 1,Pass,NaN,Pass,NaN,Pass,schedule_A,schedule_A,32,19,3,offer,Zone3,response_button_image,629.39999999851,NaN,NaN,yellowBox.png,1,0,1,0,NaN,NaN,NaN,NaN,NaN,trial_right,redBox.png,redBox.png,yellowBox.png,al1_con.png,62,31,NaN,NaN,0.85,0.15,1,0,0,1,Stable,Volatile,2.538,1.672,1.143,1.555,expert
157,1671191607289,16/12/2022 11:53:27,1671191610090,0,16/12/2022 11:53:30,109680,37,task-v1fs,repeat-u7ds#1->-repeat-l3h2#1->-repeat-pi7a#1->-repeat-apgu#1,25989827,BLIND,7672976,NaN,complete,NaN,NaN,computer,Desktop or Laptop,Windows 10,Chrome 108.0.0.0,1920x1080,1920x1080,End of Day 1,SLS,90,B,NaN,NaN,NaN,Pass,End of Day 1,Pass,NaN,Pass,NaN,Pass,schedule_A,schedule_A,32,19,5,feedback_r,Zone7,timelimit_screen,1999.97899999999,NaN,NaN,,NaN,0,1,0,NaN,NaN,1,NaN,NaN,trial_right,redBox.png,redBox.png,yellowBox.png,al1_con.png,62,31,NaN,NaN,0.85,0.15,1,0,0,1,Stable,Volatile,2.538,1.672,1.143,1.555,expert
158,1671191607426,16/12/2022 11:53:27,1671191610240,0,16/12/2022 11:53:30,109680,37,task-v1fs,repeat-u7ds#1->-repeat-l3h2#1->-repeat-pi7a#1->-repeat-apgu#1,25989827,BLIND,7672976,NaN,complete,NaN,NaN,computer,Desktop or Laptop,Windows 10,Chrome 108.0.0.0,1920x1080,1920x1080,End of Day 1,SLS,90,B,NaN,NaN,NaN,Pass,End of Day 1,Pass,NaN,Pass,NaN,Pass,schedule_A,schedule_A,32,19,6,end,Zone1,timelimit_screen,150.043000000005,NaN,NaN,,NaN,0,1,0,NaN,NaN,1,NaN,NaN,trial_right,redBox.png,redBox.png,yellowBox.png,al1_con.png,62,31,NaN,NaN,0.85,0.15,1,0,0,1,Stable,Volatile,2.538,1.672,1.143,1.555,expert
159,1671191608425,16/12/2022 11:53:28,1671191611229,0,16/12/2022 11:53:31,109680,37,task-v1fs,repeat-u7ds#1->-repeat-l3h2#1->-repeat-pi7a#1->-repeat-apgu#1,25989827,BLIND,7672976,NaN,complete,NaN,NaN,computer,Desktop or Laptop,Windows 10,Chrome 108.0.0.0,1920x1080,1920x1080,End of Day 1,SLS,90,B,NaN,NaN,NaN,Pass,End of Day 1,Pass,NaN,Pass,NaN,Pass,schedule_A,schedule_A,33,13,1,Screen 1,Zone1,continue_button,976.89999999851,NaN,NaN,,NaN,0,1,0,NaN,NaN,NaN,NaN,NaN,trial_left,redBox.png,yellowBox.png,redBox.png,al1_con.png,63,32,NaN,NaN,0.85,0.15,1,0,0,0,Stable,Volatile,2.739,1.13,0.815,1.387,expert
160,1671191609403,16/12/2022 11:53:29,1671191612223,0,16/12/2022 11:53:32,109680,37,task-v1fs,repeat-u7ds#1->-repeat-l3h2#1->-repeat-pi7a#1->-repeat-apgu#1,25989827,BLIND,7672976,NaN,complete,NaN,NaN,computer,Desktop or Laptop,Windows 10,Chrome 108.0.0.0,1920x1080,1920x1080,End of Day 1,SLS,90,B,NaN,NaN,NaN,Pass,End of Day 1,Pass,NaN,Pass,NaN,Pass,schedule_A,schedule_A,33,13,2,individual,Zone4,timelimit_screen,999.968999999983,NaN,NaN,,NaN,0,1,0,NaN,NaN,1,NaN,NaN,trial_left,redBox.png,yellowBox.png,redBox.png,al1_con.png,63,32,NaN,NaN,0.85,0.15,1,0,0,0,Stable,Volatile,2.739,1.13,0.815,1.387,expert
161,1671191610252,16/12/2022 11:53:30,1671191613061,0,16/12/2022 11:53:33,109680,37,task-v1fs,repeat-u7ds#1->-repeat-l3h2#1->-repeat-pi7a#1->-repeat-apgu#1,25989827,BLIND,7672976,NaN,complete,NaN,NaN,computer,Desktop or Laptop,Windows 10,Chrome 108.0.0.0,1920x1080,1920x1080,End of Day 1,SLS,90,B,NaN,NaN,NaN,Pass,End of Day 1,Pass,NaN,Pass,NaN,Pass,schedule_A,schedule_A,33,13,3,offer,bluebox,response_button_image,831.5,NaN,NaN,redBox.png,1,1,0,0,NaN,NaN,NaN,NaN,NaN,trial_left,redBox.png,yellowBox.png,redBox.png,al1_con.png,63,32,NaN,NaN,0.85,0.15,1,0,0,0,Stable,Volatile,2.739,1.13,0.815,1.387,expert
162,1671191612253,16/12/2022 11:53:32,1671191615056,0,16/12/2022 11:53:35,109680,37,task-v1fs,repeat-u7ds#1->-repeat-l3h2#1->-repeat-pi7a#1->-repeat-apgu#1,25989827,BLIND,7672976,NaN,complete,NaN,NaN,computer,Desktop or Laptop,Windows 10,Chrome 108.0.0.0,1920x1080,1920x1080,End of Day 1,SLS,90,B,NaN,NaN,NaN,Pass,End of Day 1,Pass,NaN,Pass,NaN,Pass,schedule_A,schedule_A,33,13,5,feedback_r,Zone7,timelimit_screen,1999.96500000003,NaN,NaN,,NaN,0,1,0,NaN,NaN,1,NaN,NaN,trial_left,redBox.png,yellowBox.png,redBox.png,al1_con.png,63,32,NaN,NaN,0.85,0.15,1,0,0,0,Stable,Volatile,2.739,1.13,0.815,1.387,expert
163,1671191612388,16/12/2022 11:53:32,1671191615206,0,16/12/2022 11:53:35,109680,37,task-v1fs,repeat-u7ds#1->-repeat-l3h2#1->-repeat-pi7a#1->-repeat-apgu#1,25989827,BLIND,7672976,NaN,complete,NaN,NaN,computer,Desktop or Laptop,Windows 10,Chrome 108.0.0.0,1920x1080,1920x1080,End of Day 1,SLS,90,B,NaN,NaN,NaN,Pass,End of Day 1,Pass,NaN,Pass,NaN,Pass,schedule_A,schedule_A,33,13,6,end,Zone1,timelimit_screen,149.992999999959,NaN,NaN,,NaN,0,1,0,NaN,NaN,1,NaN,NaN,trial_left,redBox.png,yellowBox.png,redBox.png,al1_con.png,63,32,NaN,NaN,0.85,0.15,1,0,0,0,Stable,Volatile,2.739,1.13,0.815,1.387,expert
164,1671191614091,16/12/2022 11:53:34,1671191616901,0,16/12/2022 11:53:36,109680,37,task-v1fs,repeat-u7ds#1->-repeat-l3h2#1->-repeat-pi7a#1->-repeat-apgu#1,25989827,BLIND,7672976,NaN,complete,NaN,NaN,computer,Desktop or Laptop,Windows 10,Chrome 108.0.0.0,1920x1080,1920x1080,End of Day 1,SLS,90,B,NaN,NaN,NaN,Pass,End of Day 1,Pass,NaN,Pass,NaN,Pass,schedule_A,schedule_A,34,20,1,Screen 1,Zone1,continue_button,1684.5,NaN,NaN,,NaN,0,1,0,NaN,NaN,NaN,NaN,NaN,trial_right,redBox.png,redBox.png,yellowBox.png,al1_con.png,64,33,NaN,NaN,0.85,0.15,1,0,0,1,Stable,Volatile,3.672,0.828,0.513,2.059,expert
