EventIndex,UTCTimestamp,UTCDate,LocalTimestamp,LocalTimezone,LocalDate,ExperimentID,ExperimentVersion,TreeNodeKey,RepeatKey,ScheduleID,ParticipantPublicID,ParticipantPrivateID,ParticipantStartingGroup,ParticipantStatus,ParticipantCompletionCode,ParticipantExternalSessionID,ParticipantDeviceType,ParticipantDevice,ParticipantOS,ParticipantBrowser,ParticipantMonitorSize,ParticipantViewportSize,Checkpoint,TaskName,TaskVersion,randomiser_6z9f,branch_kxy7,checkpoint_tqwf,branch_rtog,branch_7dgx,checkpoint_mqen,branch_yx2c,branch_3n8o,branch_f1s6,branch_x6l7,branch_21hs,Spreadsheet,SpreadsheetName,SpreadsheetRow,TrialNumber,ScreenNumber,ScreenName,ZoneName,ZoneType,ReactionTime,ReactionOnset,ResponseType,Response,Attempt,Correct,Incorrect,Dishonest,XCoordinate,YCoordinate,TimedOut,randomise_blocks,randomise_trials,display,ANSWER,left_button,right_button,advice,orderno,trialno,ShowProgressBar,image,prob_blue_corr,prob_group_corr,corr_ans,group_corr,group_choice,blue_pos,indiv_vol,soc_vol,ITI_1,ITI_2,ITI_3,ITI_4,condition
1,1671138963281,15/12/2022 21:16:03,1671138963187,0,15/12/2022 21:16:03,109680,37,task-rbyw,repeat-u7ds#1->-repeat-l3h2#1,25980797,BLIND,7674790,NaN,complete,NaN,NaN,computer,Desktop or Laptop,Mac OS 10.15.7,Safari 16.1,1440x900,1440x820,End of Day 1,SLS,90,B,NaN,NaN,NaN,Pass,End of Day 1,Pass,NaN,Pass,NaN,Pass,schedule_B,,NaN,NaN,NaN,,,,NaN,NaN,NaN,,NaN,0,1,0,NaN,NaN,NaN,NaN,NaN,,,,,,NaN,NaN,NaN,NaN,NaN,NaN,NaN,NaN,NaN,NaN,,,NaN,NaN,NaN,NaN,
2,1671138965342,15/12/2022 21:16:05,1671138965298,0,15/12/2022 21:16:05,109680,37,task-rbyw,repeat-u7ds#1->-repeat-l3h2#1,25980797,BLIND,7674790,NaN,complete,NaN,NaN,computer,Desktop or Laptop,Mac OS 10.15.7,Safari 16.1,1440x900,1440x820,End of Day 1,SLS,90,B,NaN,NaN,NaN,Pass,End of Day 1,Pass,NaN,Pass,NaN,Pass,schedule_B,schedule_B,1,1,1,Screen 1,Zone1,continue_button,1712,NaN,NaN,,NaN,0,1,0,NaN,NaN,NaN,NaN,NaN,getReadyb,,,,,1,NaN,NaN,NaN,NaN,NaN,NaN,NaN,NaN,NaN,,,NaN,NaN,NaN,NaN,
3,1671138967236,15/12/2022 21:16:07,1671138967184,0,15/12/2022 21:16:07,109680,37,task-rbyw,repeat-u7ds#1->-repeat-l3h2#1,25980797,BLIND,7674790,NaN,complete,NaN,NaN,computer,Desktop or Laptop,Mac OS 10.15.7,Safari 16.1,1440x900,1440x820,End of Day 1,SLS,90,B,NaN,NaN,NaN,Pass,End of Day 1,Pass,NaN,Pass,NaN,Pass,schedule_B,schedule_B,1,1,2,Screen 2,Zone1,continue_button,1878,NaN,NaN,,NaN,0,1,0,NaN,NaN,NaN,NaN,NaN,getReadyb,,,,,1,NaN,NaN,NaN,NaN,NaN,NaN,NaN,NaN,NaN,,,NaN,NaN,NaN,NaN,
4,1671138969826,15/12/2022 21:16:09,1671138969775,0,15/12/2022 21:16:09,109680,37,task-rbyw,repeat-u7ds#1->-repeat-l3h2#1,25980797,BLIND,7674790,NaN,complete,NaN,NaN,computer,Desktop or Laptop,Mac OS 10.15.7,Safari 16.1,1440x900,1440x820,End of Day 1,SLS,90,B,NaN,NaN,NaN,Pass,End of Day 1,Pass,NaN,Pass,NaN,Pass,schedule_B,schedule_B,2,1,1,Screen 1,Zone1,continue_button,2567,NaN,NaN,,NaN,0,1,0,NaN,NaN,NaN,NaN,NaN,trial_right,greenBox.png,greenBox.png,blueBox.png,al2_uncon.png,2,1,NaN,NaN,0.85,0.15,0,0,1,0,Stable,Stable,3.471,0.525,1.66,2.529,inexpert
5,1671138970811,15/12/2022 21:16:10,1671138970769,0,15/12/2022 21:16:10,109680,37,task-rbyw,repeat-u7ds#1->-repeat-l3h2#1,25980797,BLIND,7674790,NaN,complete,NaN,NaN,computer,Desktop or Laptop,Mac OS 10.15.7,Safari 16.1,1440x900,1440x820,End of Day 1,SLS,90,B,NaN,NaN,NaN,Pass,End of Day 1,Pass,NaN,Pass,NaN,Pass,schedule_B,schedule_B,2,1,2,individual,Zone4,timelimit_screen,1007,NaN,NaN,,NaN,0,1,0,NaN,NaN,1,NaN,NaN,trial_right,greenBox.png,greenBox.png,blueBox.png,al2_uncon.png,2,1,NaN,NaN,0.85,0.15,0,0,1,0,Stable,Stable,3.471,0.525,1.66,2.529,inexpert
6,1671138972271,15/12/2022 21:16:12,1671138972041,0,15/12/2022 21:16:12,109680,37,task-rbyw,repeat-u7ds#1->-repeat-l3h2#1,25980797,BLIND,7674790,NaN,complete,NaN,NaN,computer,Desktop or Laptop,Mac OS 10.15.7,Safari 16.1,1440x900,1440x820,End of Day 1,SLS,90,B,NaN,NaN,NaN,Pass,End of Day 1,Pass,NaN,Pass,NaN,Pass,schedule_B,schedule_B,2,1,3,offer,Zone3,response_button_image,1260,NaN,NaN,blueBox.png,1,0,1,0,NaN,NaN,NaN,NaN,NaN,trial_right,greenBox.png,greenBox.png,blueBox.png,al2_uncon.png,2,1,NaN,NaN,0.85,0.15,0,0,1,0,Stable,Stable,3.471,0.525,1.66,2.529,inexpert
7,1671138974113,15/12/2022 21:16:14,1671138974037,0,15/12/2022 21:16:14,109680,37,task-rbyw,repeat-u7ds#1->-repeat-l3h2#1,25980797,BLIND,7674790,NaN,complete,NaN,NaN,computer,Desktop or Laptop,Mac OS 10.15.7,Safari 16.1,1440x900,1440x820,End of Day 1,SLS,90,B,NaN,NaN,NaN,Pass,End of Day 1,Pass,NaN,Pass,NaN,Pass,schedule_B,schedule_B,2,1,5,feedback_r,Zone7,timelimit_screen,2004,NaN,NaN,,NaN,0,1,0,NaN,NaN,1,NaN,NaN,trial_right,greenBox.png,greenBox.png,blueBox.png,al2_uncon.png,2,1,NaN,NaN,0.85,0.15,0,0,1,0,Stable,Stable,3.471,0.525,1.66,2.529,inexpert
8,1671138974372,15/12/2022 21:16:14,1671138974191,0,15/12/2022 21:16:14,109680,37,task-rbyw,repeat-u7ds#1->-repeat-l3h2#1,25980797,BLIND,7674790,NaN,complete,NaN,NaN,computer,Desktop or Laptop,Mac OS 10.15.7,Safari 16.1,1440x900,1440x820,End of Day 1,SLS,90,B,NaN,NaN,NaN,Pass,End of Day 1,Pass,NaN,Pass,NaN,Pass,schedule_B,schedule_B,2,1,6,end,Zone1,timelimit_screen,154,NaN,NaN,,NaN,0,1,0,NaN,NaN,1,NaN,NaN,trial_right,greenBox.png,greenBox.png,blueBox.png,al2_uncon.png,2,1,NaN,NaN,0.85,0.15,0,0,1,0,Stable,Stable,3.471,0.525,1.66,2.529,inexpert
9,1671138975430,15/12/2022 21:16:15,1671138975354,0,15/12/2022 21:16:15,109680,37,task-rbyw,repeat-u7ds#1->-repeat-l3h2#1,25980797,BLIND,7674790,NaN,complete,NaN,NaN,computer,Desktop or Laptop,Mac OS 10.15.7,Safari 16.1,1440x900,1440x820,End of Day 1,SLS,90,B,NaN,NaN,NaN,Pass,End of Day 1,Pass,NaN,Pass,NaN,Pass,schedule_B,schedule_B,3,1,1,Screen 1,Zone1,continue_button,1142,NaN,NaN,,NaN,0,1,0,NaN,NaN,NaN,NaN,NaN,trial_left,blueBox.png,greenBox.png,blueBox.png,al2_uncon.png,3,2,NaN,NaN,0.85,0.15,1,0,0,0,Stable,Stable,1.782,1.168,1.168,2.462,inexpert
10,1671138976461,15/12/2022 21:16:16,1671138976342,0,15/12/2022 21:16:16,109680,37,task-rbyw,repeat-u7ds#1->-repeat-l3h2#1,25980797,BLIND,7674790,NaN,complete,NaN,NaN,computer,Desktop or Laptop,Mac OS 10.15.7,Safari 16.1,1440x900,1440x820,End of Day 1,SLS,90,B,NaN,NaN,NaN,Pass,End of Day 1,Pass,NaN,Pass,NaN,Pass,schedule_B,schedule_B,3,1,2,individual,Zone4,timelimit_screen,1004,NaN,NaN,,NaN,0,1,0,NaN,NaN,1,NaN,NaN,trial_left,blueBox.png,greenBox.png,blueBox.png,al2_uncon.png,3,2,NaN,NaN,0.85,0.15,1,0,0,0,Stable,Stable,1.782,1.168,1.168,2.462,inexpert
11,1671138977898,15/12/2022 21:16:17,1671138977779,0,15/12/2022 21:16:17,109680,37,task-rbyw,repeat-u7ds#1->-repeat-l3h2#1,25980797,BLIND,7674790,NaN,complete,NaN,NaN,computer,Desktop or Laptop,Mac OS 10.15.7,Safari 16.1,1440x900,1440x820,End of Day 1,SLS,90,B,NaN,NaN,NaN,Pass,End of Day 1,Pass,NaN,Pass,NaN,Pass,schedule_B,schedule_B,3,1,3,offer,bluebox,response_button_image,1425,NaN,NaN,blueBox.png,1,1,0,0,NaN,NaN,NaN,NaN,NaN,trial_left,blueBox.png,greenBox.png,blueBox.png,al2_uncon.png,3,2,NaN,NaN,0.85,0.15,1,0,0,0,Stable,Stable,1.782,1.168,1.168,2.462,inexpert
12,1671138979827,15/12/2022 21:16:19,1671138979776,0,15/12/2022 21:16:19,109680,37,task-rbyw,repeat-u7ds#1->-repeat-l3h2#1,25980797,BLIND,7674790,NaN,complete,NaN,NaN,computer,Desktop or Laptop,Mac OS 10.15.7,Safari 16.1,1440x900,1440x820,End of Day 1,SLS,90,B,NaN,NaN,NaN,Pass,End of Day 1,Pass,NaN,Pass,NaN,Pass,schedule_B,schedule_B,3,1,5,feedback_r,Zone7,timelimit_screen,2004,NaN,NaN,,NaN,0,1,0,NaN,NaN,1,NaN,NaN,trial_left,blueBox.png,greenBox.png,blueBox.png,al2_uncon.png,3,2,NaN,NaN,0.85,0.15,1,0,0,0,Stable,Stable,1.782,1.168,1.168,2.462,inexpert
13,1671138980001,15/12/2022 21:16:20,1671138979932,0,15/12/2022 21:16:19,109680,37,task-rbyw,repeat-u7ds#1->-repeat-l3h2#1,25980797,BLIND,7674790,NaN,complete,NaN,NaN,computer,Desktop or Laptop,Mac OS 10.15.7,Safari 16.1,1440x900,1440x820,End of Day 1,SLS,90,B,NaN,NaN,NaN,Pass,End of Day 1,Pass,NaN,Pass,NaN,Pass,schedule_B,schedule_B,3,1,6,end,Zone1,timelimit_screen,155,NaN,NaN,,NaN,0,1,0,NaN,NaN,1,NaN,NaN,trial_left,blueBox.png,greenBox.png,blueBox.png,al2_uncon.png,3,2,NaN,NaN,0.85,0.15,1,0,0,0,Stable,Stable,1.782,1.168,1.168,2.462,inexpert
14,1671138981038,15/12/2022 21:16:21,1671138980949,0,15/12/2022 21:16:20,109680,37,task-rbyw,repeat-u7ds#1->-repeat-l3h2#1,25980797,BLIND,7674790,NaN,complete,NaN,NaN,computer,Desktop or Laptop,Mac OS 10.15.7,Safari 16.1,1440x900,1440x820,End of Day 1,SLS,90,B,NaN,NaN,NaN,Pass,End of Day 1,Pass,NaN,Pass,NaN,Pass,schedule_B,schedule_B,4,2,1,Screen 1,Zone1,continue_button,996,NaN,NaN,,NaN,0,1,0,NaN,NaN,NaN,NaN,NaN,trial_left,blueBox.png,greenBox.png,blueBox.png,al2_uncon.png,4,3,NaN,NaN,0.85,0.15,1,0,0,0,Stable,Stable,1.983,1.181,0.538,1.588,inexpert
15,1671138981996,15/12/2022 21:16:21,1671138981948,0,15/12/2022 21:16:21,109680,37,task-rbyw,repeat-u7ds#1->-repeat-l3h2#1,25980797,BLIND,7674790,NaN,complete,NaN,NaN,computer,Desktop or Laptop,Mac OS 10.15.7,Safari 16.1,1440x900,1440x820,End of Day 1,SLS,90,B,NaN,NaN,NaN,Pass,End of Day 1,Pass,NaN,Pass,NaN,Pass,schedule_B,schedule_B,4,2,2,individual,Zone4,timelimit_screen,1006,NaN,NaN,,NaN,0,1,0,NaN,NaN,1,NaN,NaN,trial_left,blueBox.png,greenBox.png,blueBox.png,al2_uncon.png,4,3,NaN,NaN,0.85,0.15,1,0,0,0,Stable,Stable,1.983,1.181,0.538,1.588,inexpert
16,1671138982905,15/12/2022 21:16:22,1671138982874,0,15/12/2022 21:16:22,109680,37,task-rbyw,repeat-u7ds#1->-repeat-l3h2#1,25980797,BLIND,7674790,NaN,complete,NaN,NaN,computer,Desktop or Laptop,Mac OS 10.15.7,Safari 16.1,1440x900,1440x820,End of Day 1,SLS,90,B,NaN,NaN,NaN,Pass,End of Day 1,Pass,NaN,Pass,NaN,Pass,schedule_B,schedule_B,4,2,3,offer,bluebox,response_button_image,914,NaN,NaN,blueBox.png,1,1,0,0,NaN,NaN,NaN,NaN,NaN,trial_left,blueBox.png,greenBox.png,blueBox.png,al2_uncon.png,4,3,NaN,NaN,0.85,0.15,1,0,0,0,Stable,Stable,1.983,1.181,0.538,1.588,inexpert
17,1671138984906,15/12/2022 21:16:24,1671138984868,0,15/12/2022 21:16:24,109680,37,task-rbyw,repeat-u7ds#1->-repeat-l3h2#1,25980797,BLIND,7674790,NaN,complete,NaN,NaN,computer,Desktop or Laptop,Mac OS 10.15.7,Safari 16.1,1440x900,1440x820,End of Day 1,SLS,90,B,NaN,NaN,NaN,Pass,End of Day 1,Pass,NaN,Pass,NaN,Pass,schedule_B,schedule_B,4,2,5,feedback_r,Zone7,timelimit_screen,2003,NaN,NaN,,NaN,0,1,0,NaN,NaN,1,NaN,NaN,trial_left,blueBox.png,greenBox.png,blueBox.png,al2_uncon.png,4,3,NaN,NaN,0.85,0.15,1,0,0,0,Stable,Stable,1.983,1.181,0.538,1.588,inexpert
18,1671138985080,15/12/2022 21:16:25,1671138985023,0,15/12/2022 21:16:25,109680,37,task-rbyw,repeat-u7ds#1->-repeat-l3h2#1,25980797,BLIND,7674790,NaN,complete,NaN,NaN,computer,Desktop or Laptop,Mac OS 10.15.7,Safari 16.1,1440x900,1440x820,End of Day 1,SLS,90,B,NaN,NaN,NaN,Pass,End of Day 1,Pass,NaN,Pass,NaN,Pass,schedule_B,schedule_B,4,2,6,end,Zone1,timelimit_screen,155,NaN,NaN,,NaN,0,1,0,NaN,NaN,1,NaN,NaN,trial_left,blueBox.png,greenBox.png,blueBox.png,al2_uncon.png,4,3,NaN,NaN,0.85,0.15,1,0,0,0,Stable,Stable,1.983,1.181,0.538,1.588,inexpert
19,1671138985244,15/12/2022 21:16:25,1671138985164,0,15/12/2022 21:16:25,109680,37,task-rbyw,repeat-u7ds#1->-repeat-l3h2#1,25980797,BLIND,7674790,NaN,complete,NaN,NaN,computer,Desktop or Laptop,Mac OS 10.15.7,Safari 16.1,1440x900,1440x820,End of Day 1,SLS,90,B,NaN,NaN,NaN,Pass,End of Day 1,Pass,NaN,Pass,NaN,Pass,schedule_B,schedule_B,5,2,1,Screen 1,Zone1,continue_button,122.000000000004,NaN,NaN,,NaN,0,1,0,NaN,NaN,NaN,NaN,NaN,trial_right,greenBox.png,greenBox.png,blueBox.png,al2_uncon.png,5,4,NaN,NaN,0.85,0.15,0,0,1,0,Stable,Stable,1.529,0.891,1.004,1,inexpert
20,1671138986279,15/12/2022 21:16:26,1671138986163,0,15/12/2022 21:16:26,109680,37,task-rbyw,repeat-u7ds#1->-repeat-l3h2#1,25980797,BLIND,7674790,NaN,complete,NaN,NaN,computer,Desktop or Laptop,Mac OS 10.15.7,Safari 16.1,1440x900,1440x820,End of Day 1,SLS,90,B,NaN,NaN,NaN,Pass,End of Day 1,Pass,NaN,Pass,NaN,Pass,schedule_B,schedule_B,5,2,2,individual,Zone4,timelimit_screen,1002,NaN,NaN,,NaN,0,1,0,NaN,NaN,1,NaN,NaN,trial_right,greenBox.png,greenBox.png,blueBox.png,al2_uncon.png,5,4,NaN,NaN,0.85,0.15,0,0,1,0,Stable,Stable,1.529,0.891,1.004,1,inexpert
21,1671138987104,15/12/2022 21:16:27,1671138987059,0,15/12/2022 21:16:27,109680,37,task-rbyw,repeat-u7ds#1->-repeat-l3h2#1,25980797,BLIND,7674790,NaN,complete,NaN,NaN,computer,Desktop or Laptop,Mac OS 10.15.7,Safari 16.1,1440x900,1440x820,End of Day 1,SLS,90,B,NaN,NaN,NaN,Pass,End of Day 1,Pass,NaN,Pass,NaN,Pass,schedule_B,schedule_B,5,2,3,offer,Zone2,response_button_image,884,NaN,NaN,greenBox.png,1,1,0,0,NaN,NaN,NaN,NaN,NaN,trial_right,greenBox.png,greenBox.png,blueBox.png,al2_uncon.png,5,4,NaN,NaN,0.85,0.15,0,0,1,0,Stable,Stable,1.529,0.891,1.004,1,inexpert
22,1671138989098,15/12/2022 21:16:29,1671138989052,0,15/12/2022 21:16:29,109680,37,task-rbyw,repeat-u7ds#1->-repeat-l3h2#1,25980797,BLIND,7674790,NaN,complete,NaN,NaN,computer,Desktop or Laptop,Mac OS 10.15.7,Safari 16.1,1440x900,1440x820,End of Day 1,SLS,90,B,NaN,NaN,NaN,Pass,End of Day 1,Pass,NaN,Pass,NaN,Pass,schedule_B,schedule_B,5,2,4,feedback_l,Zone7,timelimit_screen,2005,NaN,NaN,,NaN,0,1,0,NaN,NaN,1,NaN,NaN,trial_right,greenBox.png,greenBox.png,blueBox.png,al2_uncon.png,5,4,NaN,NaN,0.85,0.15,0,0,1,0,Stable,Stable,1.529,0.891,1.004,1,inexpert
23,1671138989244,15/12/2022 21:16:29,1671138989205,0,15/12/2022 21:16:29,109680,37,task-rbyw,repeat-u7ds#1->-repeat-l3h2#1,25980797,BLIND,7674790,NaN,complete,NaN,NaN,computer,Desktop or Laptop,Mac OS 10.15.7,Safari 16.1,1440x900,1440x820,End of Day 1,SLS,90,B,NaN,NaN,NaN,Pass,End of Day 1,Pass,NaN,Pass,NaN,Pass,schedule_B,schedule_B,5,2,6,end,Zone1,timelimit_screen,153,NaN,NaN,,NaN,0,1,0,NaN,NaN,1,NaN,NaN,trial_right,greenBox.png,greenBox.png,blueBox.png,al2_uncon.png,5,4,NaN,NaN,0.85,0.15,0,0,1,0,Stable,Stable,1.529,0.891,1.004,1,inexpert
24,1671138990104,15/12/2022 21:16:30,1671138989873,0,15/12/2022 21:16:29,109680,37,task-rbyw,repeat-u7ds#1->-repeat-l3h2#1,25980797,BLIND,7674790,NaN,complete,NaN,NaN,computer,Desktop or Laptop,Mac OS 10.15.7,Safari 16.1,1440x900,1440x820,End of Day 1,SLS,90,B,NaN,NaN,NaN,Pass,End of Day 1,Pass,NaN,Pass,NaN,Pass,schedule_B,schedule_B,6,3,1,Screen 1,Zone1,continue_button,649,NaN,NaN,,NaN,0,1,0,NaN,NaN,NaN,NaN,NaN,trial_left,blueBox.png,greenBox.png,blueBox.png,al2_uncon.png,6,5,NaN,NaN,0.85,0.15,1,0,0,0,Stable,Stable,1.832,1.118,0.752,1.79,inexpert
25,1671138991159,15/12/2022 21:16:31,1671138990865,0,15/12/2022 21:16:30,109680,37,task-rbyw,repeat-u7ds#1->-repeat-l3h2#1,25980797,BLIND,7674790,NaN,complete,NaN,NaN,computer,Desktop or Laptop,Mac OS 10.15.7,Safari 16.1,1440x900,1440x820,End of Day 1,SLS,90,B,NaN,NaN,NaN,Pass,End of Day 1,Pass,NaN,Pass,NaN,Pass,schedule_B,schedule_B,6,3,2,individual,Zone4,timelimit_screen,1004,NaN,NaN,,NaN,0,1,0,NaN,NaN,1,NaN,NaN,trial_left,blueBox.png,greenBox.png,blueBox.png,al2_uncon.png,6,5,NaN,NaN,0.85,0.15,1,0,0,0,Stable,Stable,1.832,1.118,0.752,1.79,inexpert
26,1671138991779,15/12/2022 21:16:31,1671138991742,0,15/12/2022 21:16:31,109680,37,task-rbyw,repeat-u7ds#1->-repeat-l3h2#1,25980797,BLIND,7674790,NaN,complete,NaN,NaN,computer,Desktop or Laptop,Mac OS 10.15.7,Safari 16.1,1440x900,1440x820,End of Day 1,SLS,90,B,NaN,NaN,NaN,Pass,End of Day 1,Pass,NaN,Pass,NaN,Pass,schedule_B,schedule_B,6,3,3,offer,bluebox,response_button_image,864.999999999996,NaN,NaN,blueBox.png,1,1,0,0,NaN,NaN,NaN,NaN,NaN,trial_left,blueBox.png,greenBox.png,blueBox.png,al2_uncon.png,6,5,NaN,NaN,0.85,0.15,1,0,0,0,Stable,Stable,1.832,1.118,0.752,1.79,inexpert
27,1671138993794,15/12/2022 21:16:33,1671138993746,0,15/12/2022 21:16:33,109680,37,task-rbyw,repeat-u7ds#1->-repeat-l3h2#1,25980797,BLIND,7674790,NaN,complete,NaN,NaN,computer,Desktop or Laptop,Mac OS 10.15.7,Safari 16.1,1440x900,1440x820,End of Day 1,SLS,90,B,NaN,NaN,NaN,Pass,End of Day 1,Pass,NaN,Pass,NaN,Pass,schedule_B,schedule_B,6,3,5,feedback_r,Zone7,timelimit_screen,2008,NaN,NaN,,NaN,0,1,0,NaN,NaN,1,NaN,NaN,trial_left,blueBox.png,greenBox.png,blueBox.png,al2_uncon.png,6,5,NaN,NaN,0.85,0.15,1,0,0,0,Stable,Stable,1.832,1.118,0.752,1.79,inexpert
28,1671138993939,15/12/2022 21:16:33,1671138993901,0,15/12/2022 21:16:33,109680,37,task-rbyw,repeat-u7ds#1->-repeat-l3h2#1,25980797,BLIND,7674790,NaN,complete,NaN,NaN,computer,Desktop or Laptop,Mac OS 10.15.7,Safari 16.1,1440x900,1440x820,End of Day 1,SLS,90,B,NaN,NaN,NaN,Pass,End of Day 1,Pass,NaN,Pass,NaN,Pass,schedule_B,schedule_B,6,3,6,end,Zone1,timelimit_screen,155,NaN,NaN,,NaN,0,1,0,NaN,NaN,1,NaN,NaN,trial_left,blueBox.png,greenBox.png,blueBox.png,al2_uncon.png,6,5,NaN,NaN,0.85,0.15,1,0,0,0,Stable,Stable,1.832,1.118,0.752,1.79,inexpert
29,1671138994676,15/12/2022 21:16:34,1671138994627,0,15/12/2022 21:16:34,109680,37,task-rbyw,repeat-u7ds#1->-repeat-l3h2#1,25980797,BLIND,7674790,NaN,complete,NaN,NaN,computer,Desktop or Laptop,Mac OS 10.15.7,Safari 16.1,1440x900,1440x820,End of Day 1,SLS,90,B,NaN,NaN,NaN,Pass,End of Day 1,Pass,NaN,Pass,NaN,Pass,schedule_B,schedule_B,7,3,1,Screen 1,Zone1,continue_button,706,NaN,NaN,,NaN,0,1,0,NaN,NaN,NaN,NaN,NaN,trial_right,greenBox.png,greenBox.png,blueBox.png,al2_uncon.png,7,6,NaN,NaN,0.15,0.15,0,0,1,0,Stable,Stable,3.294,0.815,1.282,2.664,inexpert
30,1671138995724,15/12/2022 21:16:35,1671138995619,0,15/12/2022 21:16:35,109680,37,task-rbyw,repeat-u7ds#1->-repeat-l3h2#1,25980797,BLIND,7674790,NaN,complete,NaN,NaN,computer,Desktop or Laptop,Mac OS 10.15.7,Safari 16.1,1440x900,1440x820,End of Day 1,SLS,90,B,NaN,NaN,NaN,Pass,End of Day 1,Pass,NaN,Pass,NaN,Pass,schedule_B,schedule_B,7,3,2,individual,Zone4,timelimit_screen,1004,NaN,NaN,,NaN,0,1,0,NaN,NaN,1,NaN,NaN,trial_right,greenBox.png,greenBox.png,blueBox.png,al2_uncon.png,7,6,NaN,NaN,0.15,0.15,0,0,1,0,Stable,Stable,3.294,0.815,1.282,2.664,inexpert
31,1671138996377,15/12/2022 21:16:36,1671138996236,0,15/12/2022 21:16:36,109680,37,task-rbyw,repeat-u7ds#1->-repeat-l3h2#1,25980797,BLIND,7674790,NaN,complete,NaN,NaN,computer,Desktop or Laptop,Mac OS 10.15.7,Safari 16.1,1440x900,1440x820,End of Day 1,SLS,90,B,NaN,NaN,NaN,Pass,End of Day 1,Pass,NaN,Pass,NaN,Pass,schedule_B,schedule_B,7,3,3,offer,Zone2,response_button_image,606.000000000007,NaN,NaN,greenBox.png,1,1,0,0,NaN,NaN,NaN,NaN,NaN,trial_right,greenBox.png,greenBox.png,blueBox.png,al2_uncon.png,7,6,NaN,NaN,0.15,0.15,0,0,1,0,Stable,Stable,3.294,0.815,1.282,2.664,inexpert
32,1671138998478,15/12/2022 21:16:38,1671138998229,0,15/12/2022 21:16:38,109680,37,task-rbyw,repeat-u7ds#1->-repeat-l3h2#1,25980797,BLIND,7674790,NaN,complete,NaN,NaN,computer,Desktop or Laptop,Mac OS 10.15.7,Safari 16.1,1440x900,1440x820,End of Day 1,SLS,90,B,NaN,NaN,NaN,Pass,End of Day 1,Pass,NaN,Pass,NaN,Pass,schedule_B,schedule_B,7,3,4,feedback_l,Zone7,timelimit_screen,1999,NaN,NaN,,NaN,0,1,0,NaN,NaN,1,NaN,NaN,trial_right,greenBox.png,greenBox.png,blueBox.png,al2_uncon.png,7,6,NaN,NaN,0.15,0.15,0,0,1,0,Stable,Stable,3.294,0.815,1.282,2.664,inexpert
33,1671138998536,15/12/2022 21:16:38,1671138998380,0,15/12/2022 21:16:38,109680,37,task-rbyw,repeat-u7ds#1->-repeat-l3h2#1,25980797,BLIND,7674790,NaN,complete,NaN,NaN,computer,Desktop or Laptop,Mac OS 10.15.7,Safari 16.1,1440x900,1440x820,End of Day 1,SLS,90,B,NaN,NaN,NaN,Pass,End of Day 1,Pass,NaN,Pass,NaN,Pass,schedule_B,schedule_B,7,3,6,end,Zone1,timelimit_screen,152,NaN,NaN,,NaN,0,1,0,NaN,NaN,1,NaN,NaN,trial_right,greenBox.png,greenBox.png,blueBox.png,al2_uncon.png,7,6,NaN,NaN,0.15,0.15,0,0,1,0,Stable,Stable,3.294,0.815,1.282,2.664,inexpert
34,1671138999143,15/12/2022 21:16:39,1671138999106,0,15/12/2022 21:16:39,109680,37,task-rbyw,repeat-u7ds#1->-repeat-l3h2#1,25980797,BLIND,7674790,NaN,complete,NaN,NaN,computer,Desktop or Laptop,Mac OS 10.15.7,Safari 16.1,1440x900,1440x820,End of Day 1,SLS,90,B,NaN,NaN,NaN,Pass,End of Day 1,Pass,NaN,Pass,NaN,Pass,schedule_B,schedule_B,8,4,1,Screen 1,Zone1,continue_button,702,NaN,NaN,,NaN,0,1,0,NaN,NaN,NaN,NaN,NaN,trial_left,greenBox.png,blueBox.png,greenBox.png,al2_uncon.png,8,7,NaN,NaN,0.15,0.15,0,0,1,1,Stable,Stable,3.269,1.37,1.786,2.328,inexpert
35,1671139000144,15/12/2022 21:16:40,1671139000100,0,15/12/2022 21:16:40,109680,37,task-rbyw,repeat-u7ds#1->-repeat-l3h2#1,25980797,BLIND,7674790,NaN,complete,NaN,NaN,computer,Desktop or Laptop,Mac OS 10.15.7,Safari 16.1,1440x900,1440x820,End of Day 1,SLS,90,B,NaN,NaN,NaN,Pass,End of Day 1,Pass,NaN,Pass,NaN,Pass,schedule_B,schedule_B,8,4,2,individual,Zone4,timelimit_screen,997,NaN,NaN,,NaN,0,1,0,NaN,NaN,1,NaN,NaN,trial_left,greenBox.png,blueBox.png,greenBox.png,al2_uncon.png,8,7,NaN,NaN,0.15,0.15,0,0,1,1,Stable,Stable,3.269,1.37,1.786,2.328,inexpert
36,1671139000883,15/12/2022 21:16:40,1671139000833,0,15/12/2022 21:16:40,109680,37,task-rbyw,repeat-u7ds#1->-repeat-l3h2#1,25980797,BLIND,7674790,NaN,complete,NaN,NaN,computer,Desktop or Laptop,Mac OS 10.15.7,Safari 16.1,1440x900,1440x820,End of Day 1,SLS,90,B,NaN,NaN,NaN,Pass,End of Day 1,Pass,NaN,Pass,NaN,Pass,schedule_B,schedule_B,8,4,3,offer,Zone2,response_button_image,722,NaN,NaN,blueBox.png,1,0,1,0,NaN,NaN,NaN,NaN,NaN,trial_left,greenBox.png,blueBox.png,greenBox.png,al2_uncon.png,8,7,NaN,NaN,0.15,0.15,0,0,1,1,Stable,Stable,3.269,1.37,1.786,2.328,inexpert
37,1671139002877,15/12/2022 21:16:42,1671139002831,0,15/12/2022 21:16:42,109680,37,task-rbyw,repeat-u7ds#1->-repeat-l3h2#1,25980797,BLIND,7674790,NaN,complete,NaN,NaN,computer,Desktop or Laptop,Mac OS 10.15.7,Safari 16.1,1440x900,1440x820,End of Day 1,SLS,90,B,NaN,NaN,NaN,Pass,End of Day 1,Pass,NaN,Pass,NaN,Pass,schedule_B,schedule_B,8,4,4,feedback_l,Zone7,timelimit_screen,2002,NaN,NaN,,NaN,0,1,0,NaN,NaN,1,NaN,NaN,trial_left,greenBox.png,blueBox.png,greenBox.png,al2_uncon.png,8,7,NaN,NaN,0.15,0.15,0,0,1,1,Stable,Stable,3.269,1.37,1.786,2.328,inexpert
38,1671139003064,15/12/2022 21:16:43,1671139002979,0,15/12/2022 21:16:42,109680,37,task-rbyw,repeat-u7ds#1->-repeat-l3h2#1,25980797,BLIND,7674790,NaN,complete,NaN,NaN,computer,Desktop or Laptop,Mac OS 10.15.7,Safari 16.1,1440x900,1440x820,End of Day 1,SLS,90,B,NaN,NaN,NaN,Pass,End of Day 1,Pass,NaN,Pass,NaN,Pass,schedule_B,schedule_B,8,4,6,end,Zone1,timelimit_screen,149,NaN,NaN,,NaN,0,1,0,NaN,NaN,1,NaN,NaN,trial_left,greenBox.png,blueBox.png,greenBox.png,al2_uncon.png,8,7,NaN,NaN,0.15,0.15,0,0,1,1,Stable,Stable,3.269,1.37,1.786,2.328,inexpert
39,1671139003818,15/12/2022 21:16:43,1671139003772,0,15/12/2022 21:16:43,109680,37,task-rbyw,repeat-u7ds#1->-repeat-l3h2#1,25980797,BLIND,7674790,NaN,complete,NaN,NaN,computer,Desktop or Laptop,Mac OS 10.15.7,Safari 16.1,1440x900,1440x820,End of Day 1,SLS,90,B,NaN,NaN,NaN,Pass,End of Day 1,Pass,NaN,Pass,NaN,Pass,schedule_B,schedule_B,9,4,1,Screen 1,Zone1,continue_button,770.999999999993,NaN,NaN,,NaN,0,1,0,NaN,NaN,NaN,NaN,NaN,trial_right,blueBox.png,blueBox.png,greenBox.png,al2_uncon.png,9,8,NaN,NaN,0.15,0.15,1,0,0,1,Stable,Stable,3.975,0.576,1.256,1.807,inexpert
40,1671139004814,15/12/2022 21:16:44,1671139004775,0,15/12/2022 21:16:44,109680,37,task-rbyw,repeat-u7ds#1->-repeat-l3h2#1,25980797,BLIND,7674790,NaN,complete,NaN,NaN,computer,Desktop or Laptop,Mac OS 10.15.7,Safari 16.1,1440x900,1440x820,End of Day 1,SLS,90,B,NaN,NaN,NaN,Pass,End of Day 1,Pass,NaN,Pass,NaN,Pass,schedule_B,schedule_B,9,4,2,individual,Zone4,timelimit_screen,1004,NaN,NaN,,NaN,0,1,0,NaN,NaN,1,NaN,NaN,trial_right,blueBox.png,blueBox.png,greenBox.png,al2_uncon.png,9,8,NaN,NaN,0.15,0.15,1,0,0,1,Stable,Stable,3.975,0.576,1.256,1.807,inexpert
41,1671139005817,15/12/2022 21:16:45,1671139005683,0,15/12/2022 21:16:45,109680,37,task-rbyw,repeat-u7ds#1->-repeat-l3h2#1,25980797,BLIND,7674790,NaN,complete,NaN,NaN,computer,Desktop or Laptop,Mac OS 10.15.7,Safari 16.1,1440x900,1440x820,End of Day 1,SLS,90,B,NaN,NaN,NaN,Pass,End of Day 1,Pass,NaN,Pass,NaN,Pass,schedule_B,schedule_B,9,4,3,offer,Zone2,response_button_image,896,NaN,NaN,blueBox.png,1,1,0,0,NaN,NaN,NaN,NaN,NaN,trial_right,blueBox.png,blueBox.png,greenBox.png,al2_uncon.png,9,8,NaN,NaN,0.15,0.15,1,0,0,1,Stable,Stable,3.975,0.576,1.256,1.807,inexpert
42,1671139007925,15/12/2022 21:16:47,1671139007677,0,15/12/2022 21:16:47,109680,37,task-rbyw,repeat-u7ds#1->-repeat-l3h2#1,25980797,BLIND,7674790,NaN,complete,NaN,NaN,computer,Desktop or Laptop,Mac OS 10.15.7,Safari 16.1,1440x900,1440x820,End of Day 1,SLS,90,B,NaN,NaN,NaN,Pass,End of Day 1,Pass,NaN,Pass,NaN,Pass,schedule_B,schedule_B,9,4,4,feedback_l,Zone7,timelimit_screen,1995,NaN,NaN,,NaN,0,1,0,NaN,NaN,1,NaN,NaN,trial_right,blueBox.png,blueBox.png,greenBox.png,al2_uncon.png,9,8,NaN,NaN,0.15,0.15,1,0,0,1,Stable,Stable,3.975,0.576,1.256,1.807,inexpert
43,1671139008008,15/12/2022 21:16:48,1671139007833,0,15/12/2022 21:16:47,109680,37,task-rbyw,repeat-u7ds#1->-repeat-l3h2#1,25980797,BLIND,7674790,NaN,complete,NaN,NaN,computer,Desktop or Laptop,Mac OS 10.15.7,Safari 16.1,1440x900,1440x820,End of Day 1,SLS,90,B,NaN,NaN,NaN,Pass,End of Day 1,Pass,NaN,Pass,NaN,Pass,schedule_B,schedule_B,9,4,6,end,Zone1,timelimit_screen,156,NaN,NaN,,NaN,0,1,0,NaN,NaN,1,NaN,NaN,trial_right,blueBox.png,blueBox.png,greenBox.png,al2_uncon.png,9,8,NaN,NaN,0.15,0.15,1,0,0,1,Stable,Stable,3.975,0.576,1.256,1.807,inexpert
44,1671139008960,15/12/2022 21:16:48,1671139008756,0,15/12/2022 21:16:48,109680,37,task-rbyw,repeat-u7ds#1->-repeat-l3h2#1,25980797,BLIND,7674790,NaN,complete,NaN,NaN,computer,Desktop or Laptop,Mac OS 10.15.7,Safari 16.1,1440x900,1440x820,End of Day 1,SLS,90,B,NaN,NaN,NaN,Pass,End of Day 1,Pass,NaN,Pass,NaN,Pass,schedule_B,schedule_B,10,5,1,Screen 1,Zone1,continue_button,903,NaN,NaN,,NaN,0,1,0,NaN,NaN,NaN,NaN,NaN,trial_left,greenBox.png,blueBox.png,greenBox.png,al2_uncon.png,10,9,NaN,NaN,0.15,0.15,0,0,1,1,Stable,Stable,3.798,1.055,1.559,2.042,inexpert
45,1671139009798,15/12/2022 21:16:49,1671139009748,0,15/12/2022 21:16:49,109680,37,task-rbyw,repeat-u7ds#1->-repeat-l3h2#1,25980797,BLIND,7674790,NaN,complete,NaN,NaN,computer,Desktop or Laptop,Mac OS 10.15.7,Safari 16.1,1440x900,1440x820,End of Day 1,SLS,90,B,NaN,NaN,NaN,Pass,End of Day 1,Pass,NaN,Pass,NaN,Pass,schedule_B,schedule_B,10,5,2,individual,Zone4,timelimit_screen,1003,NaN,NaN,,NaN,0,1,0,NaN,NaN,1,NaN,NaN,trial_left,greenBox.png,blueBox.png,greenBox.png,al2_uncon.png,10,9,NaN,NaN,0.15,0.15,0,0,1,1,Stable,Stable,3.798,1.055,1.559,2.042,inexpert
46,1671139011768,15/12/2022 21:16:51,1671139011711,0,15/12/2022 21:16:51,109680,37,task-rbyw,repeat-u7ds#1->-repeat-l3h2#1,25980797,BLIND,7674790,NaN,complete,NaN,NaN,computer,Desktop or Laptop,Mac OS 10.15.7,Safari 16.1,1440x900,1440x820,End of Day 1,SLS,90,B,NaN,NaN,NaN,Pass,End of Day 1,Pass,NaN,Pass,NaN,Pass,schedule_B,schedule_B,10,5,3,offer,bluebox,response_button_image,1953,NaN,NaN,greenBox.png,1,1,0,0,NaN,NaN,NaN,NaN,NaN,trial_left,greenBox.png,blueBox.png,greenBox.png,al2_uncon.png,10,9,NaN,NaN,0.15,0.15,0,0,1,1,Stable,Stable,3.798,1.055,1.559,2.042,inexpert
47,1671139013756,15/12/2022 21:16:53,1671139013712,0,15/12/2022 21:16:53,109680,37,task-rbyw,repeat-u7ds#1->-repeat-l3h2#1,25980797,BLIND,7674790,NaN,complete,NaN,NaN,computer,Desktop or Laptop,Mac OS 10.15.7,Safari 16.1,1440x900,1440x820,End of Day 1,SLS,90,B,NaN,NaN,NaN,Pass,End of Day 1,Pass,NaN,Pass,NaN,Pass,schedule_B,schedule_B,10,5,5,feedback_r,Zone7,timelimit_screen,2005,NaN,NaN,,NaN,0,1,0,NaN,NaN,1,NaN,NaN,trial_left,greenBox.png,blueBox.png,greenBox.png,al2_uncon.png,10,9,NaN,NaN,0.15,0.15,0,0,1,1,Stable,Stable,3.798,1.055,1.559,2.042,inexpert
48,1671139013911,15/12/2022 21:16:53,1671139013866,0,15/12/2022 21:16:53,109680,37,task-rbyw,repeat-u7ds#1->-repeat-l3h2#1,25980797,BLIND,7674790,NaN,complete,NaN,NaN,computer,Desktop or Laptop,Mac OS 10.15.7,Safari 16.1,1440x900,1440x820,End of Day 1,SLS,90,B,NaN,NaN,NaN,Pass,End of Day 1,Pass,NaN,Pass,NaN,Pass,schedule_B,schedule_B,10,5,6,end,Zone1,timelimit_screen,154,NaN,NaN,,NaN,0,1,0,NaN,NaN,1,NaN,NaN,trial_left,greenBox.png,blueBox.png,greenBox.png,al2_uncon.png,10,9,NaN,NaN,0.15,0.15,0,0,1,1,Stable,Stable,3.798,1.055,1.559,2.042,inexpert
49,1671139017028,15/12/2022 21:16:57,1671139016973,0,15/12/2022 21:16:56,109680,37,task-rbyw,repeat-u7ds#1->-repeat-l3h2#1,25980797,BLIND,7674790,NaN,complete,NaN,NaN,computer,Desktop or Laptop,Mac OS 10.15.7,Safari 16.1,1440x900,1440x820,End of Day 1,SLS,90,B,NaN,NaN,NaN,Pass,End of Day 1,Pass,NaN,Pass,NaN,Pass,schedule_B,schedule_B,11,5,1,Screen 1,Zone1,continue_button,3086,NaN,NaN,,NaN,0,1,0,NaN,NaN,NaN,NaN,NaN,trial_right,greenBox.png,greenBox.png,blueBox.png,al2_uncon.png,21,10,NaN,NaN,0.15,0.15,0,0,1,0,Stable,Stable,1.857,0.5,1.294,2.916,inexpert
50,1671139018028,15/12/2022 21:16:58,1671139017976,0,15/12/2022 21:16:57,109680,37,task-rbyw,repeat-u7ds#1->-repeat-l3h2#1,25980797,BLIND,7674790,NaN,complete,NaN,NaN,computer,Desktop or Laptop,Mac OS 10.15.7,Safari 16.1,1440x900,1440x820,End of Day 1,SLS,90,B,NaN,NaN,NaN,Pass,End of Day 1,Pass,NaN,Pass,NaN,Pass,schedule_B,schedule_B,11,5,2,individual,Zone4,timelimit_screen,1004,NaN,NaN,,NaN,0,1,0,NaN,NaN,1,NaN,NaN,trial_right,greenBox.png,greenBox.png,blueBox.png,al2_uncon.png,21,10,NaN,NaN,0.15,0.15,0,0,1,0,Stable,Stable,1.857,0.5,1.294,2.916,inexpert
51,1671139018879,15/12/2022 21:16:58,1671139018837,0,15/12/2022 21:16:58,109680,37,task-rbyw,repeat-u7ds#1->-repeat-l3h2#1,25980797,BLIND,7674790,NaN,complete,NaN,NaN,computer,Desktop or Laptop,Mac OS 10.15.7,Safari 16.1,1440x900,1440x820,End of Day 1,SLS,90,B,NaN,NaN,NaN,Pass,End of Day 1,Pass,NaN,Pass,NaN,Pass,schedule_B,schedule_B,11,5,3,offer,Zone2,response_button_image,851,NaN,NaN,greenBox.png,1,1,0,0,NaN,NaN,NaN,NaN,NaN,trial_right,greenBox.png,greenBox.png,blueBox.png,al2_uncon.png,21,10,NaN,NaN,0.15,0.15,0,0,1,0,Stable,Stable,1.857,0.5,1.294,2.916,inexpert
52,1671139020908,15/12/2022 21:17:00,1671139020831,0,15/12/2022 21:17:00,109680,37,task-rbyw,repeat-u7ds#1->-repeat-l3h2#1,25980797,BLIND,7674790,NaN,complete,NaN,NaN,computer,Desktop or Laptop,Mac OS 10.15.7,Safari 16.1,1440x900,1440x820,End of Day 1,SLS,90,B,NaN,NaN,NaN,Pass,End of Day 1,Pass,NaN,Pass,NaN,Pass,schedule_B,schedule_B,11,5,4,feedback_l,Zone7,timelimit_screen,2002,NaN,NaN,,NaN,0,1,0,NaN,NaN,1,NaN,NaN,trial_right,greenBox.png,greenBox.png,blueBox.png,al2_uncon.png,21,10,NaN,NaN,0.15,0.15,0,0,1,0,Stable,Stable,1.857,0.5,1.294,2.916,inexpert
53,1671139021031,15/12/2022 21:17:01,1671139020987,0,15/12/2022 21:17:00,109680,37,task-rbyw,repeat-u7ds#1->-repeat-l3h2#1,25980797,BLIND,7674790,NaN,complete,NaN,NaN,computer,Desktop or Laptop,Mac OS 10.15.7,Safari 16.1,1440x900,1440x820,End of Day 1,SLS,90,B,NaN,NaN,NaN,Pass,End of Day 1,Pass,NaN,Pass,NaN,Pass,schedule_B,schedule_B,11,5,6,end,Zone1,timelimit_screen,156,NaN,NaN,,NaN,0,1,0,NaN,NaN,1,NaN,NaN,trial_right,greenBox.png,greenBox.png,blueBox.png,al2_uncon.png,21,10,NaN,NaN,0.15,0.15,0,0,1,0,Stable,Stable,1.857,0.5,1.294,2.916,inexpert
54,1671139021703,15/12/2022 21:17:01,1671139021656,0,15/12/2022 21:17:01,109680,37,task-rbyw,repeat-u7ds#1->-repeat-l3h2#1,25980797,BLIND,7674790,NaN,complete,NaN,NaN,computer,Desktop or Laptop,Mac OS 10.15.7,Safari 16.1,1440x900,1440x820,End of Day 1,SLS,90,B,NaN,NaN,NaN,Pass,End of Day 1,Pass,NaN,Pass,NaN,Pass,schedule_B,schedule_B,12,6,1,Screen 1,Zone1,continue_button,650,NaN,NaN,,NaN,0,1,0,NaN,NaN,NaN,NaN,NaN,trial_left,blueBox.png,greenBox.png,blueBox.png,al2_uncon.png,22,11,NaN,NaN,0.85,0.15,1,0,0,0,Stable,Stable,1.126,1.849,1.483,1.689,inexpert
55,1671139022692,15/12/2022 21:17:02,1671139022655,0,15/12/2022 21:17:02,109680,37,task-rbyw,repeat-u7ds#1->-repeat-l3h2#1,25980797,BLIND,7674790,NaN,complete,NaN,NaN,computer,Desktop or Laptop,Mac OS 10.15.7,Safari 16.1,1440x900,1440x820,End of Day 1,SLS,90,B,NaN,NaN,NaN,Pass,End of Day 1,Pass,NaN,Pass,NaN,Pass,schedule_B,schedule_B,12,6,2,individual,Zone4,timelimit_screen,1002,NaN,NaN,,NaN,0,1,0,NaN,NaN,1,NaN,NaN,trial_left,blueBox.png,greenBox.png,blueBox.png,al2_uncon.png,22,11,NaN,NaN,0.85,0.15,1,0,0,0,Stable,Stable,1.126,1.849,1.483,1.689,inexpert
56,1671139023708,15/12/2022 21:17:03,1671139023669,0,15/12/2022 21:17:03,109680,37,task-rbyw,repeat-u7ds#1->-repeat-l3h2#1,25980797,BLIND,7674790,NaN,complete,NaN,NaN,computer,Desktop or Laptop,Mac OS 10.15.7,Safari 16.1,1440x900,1440x820,End of Day 1,SLS,90,B,NaN,NaN,NaN,Pass,End of Day 1,Pass,NaN,Pass,NaN,Pass,schedule_B,schedule_B,12,6,3,offer,bluebox,response_button_image,1003,NaN,NaN,blueBox.png,1,1,0,0,NaN,NaN,NaN,NaN,NaN,trial_left,blueBox.png,greenBox.png,blueBox.png,al2_uncon.png,22,11,NaN,NaN,0.85,0.15,1,0,0,0,Stable,Stable,1.126,1.849,1.483,1.689,inexpert
57,1671139025746,15/12/2022 21:17:05,1671139025658,0,15/12/2022 21:17:05,109680,37,task-rbyw,repeat-u7ds#1->-repeat-l3h2#1,25980797,BLIND,7674790,NaN,complete,NaN,NaN,computer,Desktop or Laptop,Mac OS 10.15.7,Safari 16.1,1440x900,1440x820,End of Day 1,SLS,90,B,NaN,NaN,NaN,Pass,End of Day 1,Pass,NaN,Pass,NaN,Pass,schedule_B,schedule_B,12,6,5,feedback_r,Zone7,timelimit_screen,2002,NaN,NaN,,NaN,0,1,0,NaN,NaN,1,NaN,NaN,trial_left,blueBox.png,greenBox.png,blueBox.png,al2_uncon.png,22,11,NaN,NaN,0.85,0.15,1,0,0,0,Stable,Stable,1.126,1.849,1.483,1.689,inexpert
58,1671139025845,15/12/2022 21:17:05,1671139025805,0,15/12/2022 21:17:05,109680,37,task-rbyw,repeat-u7ds#1->-repeat-l3h2#1,25980797,BLIND,7674790,NaN,complete,NaN,NaN,computer,Desktop or Laptop,Mac OS 10.15.7,Safari 16.1,1440x900,1440x820,End of Day 1,SLS,90,B,NaN,NaN,NaN,Pass,End of Day 1,Pass,NaN,Pass,NaN,Pass,schedule_B,schedule_B,12,6,6,end,Zone1,timelimit_screen,147,NaN,NaN,,NaN,0,1,0,NaN,NaN,1,NaN,NaN,trial_left,blueBox.png,greenBox.png,blueBox.png,al2_uncon.png,22,11,NaN,NaN,0.85,0.15,1,0,0,0,Stable,Stable,1.126,1.849,1.483,1.689,inexpert
59,1671139026790,15/12/2022 21:17:06,1671139026545,0,15/12/2022 21:17:06,109680,37,task-rbyw,repeat-u7ds#1->-repeat-l3h2#1,25980797,BLIND,7674790,NaN,complete,NaN,NaN,computer,Desktop or Laptop,Mac OS 10.15.7,Safari 16.1,1440x900,1440x820,End of Day 1,SLS,90,B,NaN,NaN,NaN,Pass,End of Day 1,Pass,NaN,Pass,NaN,Pass,schedule_B,schedule_B,13,7,1,Screen 1,Zone1,continue_button,719.999999999993,NaN,NaN,,NaN,0,1,0,NaN,NaN,NaN,NaN,NaN,trial_left,blueBox.png,greenBox.png,blueBox.png,al2_uncon.png,23,12,NaN,NaN,0.85,0.15,1,0,0,0,Stable,Stable,2.361,0.992,0.5,1.975,inexpert
60,1671139027582,15/12/2022 21:17:07,1671139027546,0,15/12/2022 21:17:07,109680,37,task-rbyw,repeat-u7ds#1->-repeat-l3h2#1,25980797,BLIND,7674790,NaN,complete,NaN,NaN,computer,Desktop or Laptop,Mac OS 10.15.7,Safari 16.1,1440x900,1440x820,End of Day 1,SLS,90,B,NaN,NaN,NaN,Pass,End of Day 1,Pass,NaN,Pass,NaN,Pass,schedule_B,schedule_B,13,7,2,individual,Zone4,timelimit_screen,1004,NaN,NaN,,NaN,0,1,0,NaN,NaN,1,NaN,NaN,trial_left,blueBox.png,greenBox.png,blueBox.png,al2_uncon.png,23,12,NaN,NaN,0.85,0.15,1,0,0,0,Stable,Stable,2.361,0.992,0.5,1.975,inexpert
61,1671139028461,15/12/2022 21:17:08,1671139028401,0,15/12/2022 21:17:08,109680,37,task-rbyw,repeat-u7ds#1->-repeat-l3h2#1,25980797,BLIND,7674790,NaN,complete,NaN,NaN,computer,Desktop or Laptop,Mac OS 10.15.7,Safari 16.1,1440x900,1440x820,End of Day 1,SLS,90,B,NaN,NaN,NaN,Pass,End of Day 1,Pass,NaN,Pass,NaN,Pass,schedule_B,schedule_B,13,7,3,offer,bluebox,response_button_image,843.000000000007,NaN,NaN,blueBox.png,1,1,0,0,NaN,NaN,NaN,NaN,NaN,trial_left,blueBox.png,greenBox.png,blueBox.png,al2_uncon.png,23,12,NaN,NaN,0.85,0.15,1,0,0,0,Stable,Stable,2.361,0.992,0.5,1.975,inexpert
62,1671139030445,15/12/2022 21:17:10,1671139030394,0,15/12/2022 21:17:10,109680,37,task-rbyw,repeat-u7ds#1->-repeat-l3h2#1,25980797,BLIND,7674790,NaN,complete,NaN,NaN,computer,Desktop or Laptop,Mac OS 10.15.7,Safari 16.1,1440x900,1440x820,End of Day 1,SLS,90,B,NaN,NaN,NaN,Pass,End of Day 1,Pass,NaN,Pass,NaN,Pass,schedule_B,schedule_B,13,7,5,feedback_r,Zone7,timelimit_screen,2003,NaN,NaN,,NaN,0,1,0,NaN,NaN,1,NaN,NaN,trial_left,blueBox.png,greenBox.png,blueBox.png,al2_uncon.png,23,12,NaN,NaN,0.85,0.15,1,0,0,0,Stable,Stable,2.361,0.992,0.5,1.975,inexpert
63,1671139030574,15/12/2022 21:17:10,1671139030536,0,15/12/2022 21:17:10,109680,37,task-rbyw,repeat-u7ds#1->-repeat-l3h2#1,25980797,BLIND,7674790,NaN,complete,NaN,NaN,computer,Desktop or Laptop,Mac OS 10.15.7,Safari 16.1,1440x900,1440x820,End of Day 1,SLS,90,B,NaN,NaN,NaN,Pass,End of Day 1,Pass,NaN,Pass,NaN,Pass,schedule_B,schedule_B,13,7,6,end,Zone1,timelimit_screen,142,NaN,NaN,,NaN,0,1,0,NaN,NaN,1,NaN,NaN,trial_left,blueBox.png,greenBox.png,blueBox.png,al2_uncon.png,23,12,NaN,NaN,0.85,0.15,1,0,0,0,Stable,Stable,2.361,0.992,0.5,1.975,inexpert
64,1671139031059,15/12/2022 21:17:11,1671139031016,0,15/12/2022 21:17:11,109680,37,task-rbyw,repeat-u7ds#1->-repeat-l3h2#1,25980797,BLIND,7674790,NaN,complete,NaN,NaN,computer,Desktop or Laptop,Mac OS 10.15.7,Safari 16.1,1440x900,1440x820,End of Day 1,SLS,90,B,NaN,NaN,NaN,Pass,End of Day 1,Pass,NaN,Pass,NaN,Pass,schedule_B,schedule_B,14,6,1,Screen 1,Zone1,continue_button,454,NaN,NaN,,NaN,0,1,0,NaN,NaN,NaN,NaN,NaN,trial_right,blueBox.png,blueBox.png,greenBox.png,al2_uncon.png,24,13,NaN,NaN,0.85,0.15,1,0,0,1,Stable,Stable,1.05,1.95,1.319,1.487,inexpert
65,1671139032057,15/12/2022 21:17:12,1671139032015,0,15/12/2022 21:17:12,109680,37,task-rbyw,repeat-u7ds#1->-repeat-l3h2#1,25980797,BLIND,7674790,NaN,complete,NaN,NaN,computer,Desktop or Laptop,Mac OS 10.15.7,Safari 16.1,1440x900,1440x820,End of Day 1,SLS,90,B,NaN,NaN,NaN,Pass,End of Day 1,Pass,NaN,Pass,NaN,Pass,schedule_B,schedule_B,14,6,2,individual,Zone4,timelimit_screen,1004,NaN,NaN,,NaN,0,1,0,NaN,NaN,1,NaN,NaN,trial_right,blueBox.png,blueBox.png,greenBox.png,al2_uncon.png,24,13,NaN,NaN,0.85,0.15,1,0,0,1,Stable,Stable,1.05,1.95,1.319,1.487,inexpert
66,1671139032792,15/12/2022 21:17:12,1671139032744,0,15/12/2022 21:17:12,109680,37,task-rbyw,repeat-u7ds#1->-repeat-l3h2#1,25980797,BLIND,7674790,NaN,complete,NaN,NaN,computer,Desktop or Laptop,Mac OS 10.15.7,Safari 16.1,1440x900,1440x820,End of Day 1,SLS,90,B,NaN,NaN,NaN,Pass,End of Day 1,Pass,NaN,Pass,NaN,Pass,schedule_B,schedule_B,14,6,3,offer,Zone2,response_button_image,717,NaN,NaN,blueBox.png,1,1,0,0,NaN,NaN,NaN,NaN,NaN,trial_right,blueBox.png,blueBox.png,greenBox.png,al2_uncon.png,24,13,NaN,NaN,0.85,0.15,1,0,0,1,Stable,Stable,1.05,1.95,1.319,1.487,inexpert
67,1671139034772,15/12/2022 21:17:14,1671139034739,0,15/12/2022 21:17:14,109680,37,task-rbyw,repeat-u7ds#1->-repeat-l3h2#1,25980797,BLIND,7674790,NaN,complete,NaN,NaN,computer,Desktop or Laptop,Mac OS 10.15.7,Safari 16.1,1440x900,1440x820,End of Day 1,SLS,90,B,NaN,NaN,NaN,Pass,End of Day 1,Pass,NaN,Pass,NaN,Pass,schedule_B,schedule_B,14,6,4,feedback_l,Zone7,timelimit_screen,2002,NaN,NaN,,NaN,0,1,0,NaN,NaN,1,NaN,NaN,trial_right,blueBox.png,blueBox.png,greenBox.png,al2_uncon.png,24,13,NaN,NaN,0.85,0.15,1,0,0,1,Stable,Stable,1.05,1.95,1.319,1.487,inexpert
68,1671139034930,15/12/2022 21:17:14,1671139034891,0,15/12/2022 21:17:14,109680,37,task-rbyw,repeat-u7ds#1->-repeat-l3h2#1,25980797,BLIND,7674790,NaN,complete,NaN,NaN,computer,Desktop or Laptop,Mac OS 10.15.7,Safari 16.1,1440x900,1440x820,End of Day 1,SLS,90,B,NaN,NaN,NaN,Pass,End of Day 1,Pass,NaN,Pass,NaN,Pass,schedule_B,schedule_B,14,6,6,end,Zone1,timelimit_screen,153,NaN,NaN,,NaN,0,1,0,NaN,NaN,1,NaN,NaN,trial_right,blueBox.png,blueBox.png,greenBox.png,al2_uncon.png,24,13,NaN,NaN,0.85,0.15,1,0,0,1,Stable,Stable,1.05,1.95,1.319,1.487,inexpert
69,1671139036224,15/12/2022 21:17:16,1671139036056,0,15/12/2022 21:17:16,109680,37,task-rbyw,repeat-u7ds#1->-repeat-l3h2#1,25980797,BLIND,7674790,NaN,complete,NaN,NaN,computer,Desktop or Laptop,Mac OS 10.15.7,Safari 16.1,1440x900,1440x820,End of Day 1,SLS,90,B,NaN,NaN,NaN,Pass,End of Day 1,Pass,NaN,Pass,NaN,Pass,schedule_B,schedule_B,15,7,1,Screen 1,Zone1,continue_button,1143,NaN,NaN,,NaN,0,1,0,NaN,NaN,NaN,NaN,NaN,trial_right,blueBox.png,blueBox.png,greenBox.png,al2_uncon.png,25,14,NaN,NaN,0.85,0.15,1,0,0,1,Stable,Stable,3.395,0.84,0.803,1.252,inexpert
70,1671139037277,15/12/2022 21:17:17,1671139037049,0,15/12/2022 21:17:17,109680,37,task-rbyw,repeat-u7ds#1->-repeat-l3h2#1,25980797,BLIND,7674790,NaN,complete,NaN,NaN,computer,Desktop or Laptop,Mac OS 10.15.7,Safari 16.1,1440x900,1440x820,End of Day 1,SLS,90,B,NaN,NaN,NaN,Pass,End of Day 1,Pass,NaN,Pass,NaN,Pass,schedule_B,schedule_B,15,7,2,individual,Zone4,timelimit_screen,1003,NaN,NaN,,NaN,0,1,0,NaN,NaN,1,NaN,NaN,trial_right,blueBox.png,blueBox.png,greenBox.png,al2_uncon.png,25,14,NaN,NaN,0.85,0.15,1,0,0,1,Stable,Stable,3.395,0.84,0.803,1.252,inexpert
71,1671139038088,15/12/2022 21:17:18,1671139038053,0,15/12/2022 21:17:18,109680,37,task-rbyw,repeat-u7ds#1->-repeat-l3h2#1,25980797,BLIND,7674790,NaN,complete,NaN,NaN,computer,Desktop or Laptop,Mac OS 10.15.7,Safari 16.1,1440x900,1440x820,End of Day 1,SLS,90,B,NaN,NaN,NaN,Pass,End of Day 1,Pass,NaN,Pass,NaN,Pass,schedule_B,schedule_B,15,7,3,offer,Zone2,response_button_image,993,NaN,NaN,blueBox.png,1,1,0,0,NaN,NaN,NaN,NaN,NaN,trial_right,blueBox.png,blueBox.png,greenBox.png,al2_uncon.png,25,14,NaN,NaN,0.85,0.15,1,0,0,1,Stable,Stable,3.395,0.84,0.803,1.252,inexpert
72,1671139040090,15/12/2022 21:17:20,1671139040052,0,15/12/2022 21:17:20,109680,37,task-rbyw,repeat-u7ds#1->-repeat-l3h2#1,25980797,BLIND,7674790,NaN,complete,NaN,NaN,computer,Desktop or Laptop,Mac OS 10.15.7,Safari 16.1,1440x900,1440x820,End of Day 1,SLS,90,B,NaN,NaN,NaN,Pass,End of Day 1,Pass,NaN,Pass,NaN,Pass,schedule_B,schedule_B,15,7,4,feedback_l,Zone7,timelimit_screen,2002,NaN,NaN,,NaN,0,1,0,NaN,NaN,1,NaN,NaN,trial_right,blueBox.png,blueBox.png,greenBox.png,al2_uncon.png,25,14,NaN,NaN,0.85,0.15,1,0,0,1,Stable,Stable,3.395,0.84,0.803,1.252,inexpert
73,1671139040432,15/12/2022 21:17:20,1671139040201,0,15/12/2022 21:17:20,109680,37,task-rbyw,repeat-u7ds#1->-repeat-l3h2#1,25980797,BLIND,7674790,NaN,complete,NaN,NaN,computer,Desktop or Laptop,Mac OS 10.15.7,Safari 16.1,1440x900,1440x820,End of Day 1,SLS,90,B,NaN,NaN,NaN,Pass,End of Day 1,Pass,NaN,Pass,NaN,Pass,schedule_B,schedule_B,15,7,6,end,Zone1,timelimit_screen,148,NaN,NaN,,NaN,0,1,0,NaN,NaN,1,NaN,NaN,trial_right,blueBox.png,blueBox.png,greenBox.png,al2_uncon.png,25,14,NaN,NaN,0.85,0.15,1,0,0,1,Stable,Stable,3.395,0.84,0.803,1.252,inexpert
74,1671139040890,15/12/2022 21:17:20,1671139040858,0,15/12/2022 21:17:20,109680,37,task-rbyw,repeat-u7ds#1->-repeat-l3h2#1,25980797,BLIND,7674790,NaN,complete,NaN,NaN,computer,Desktop or Laptop,Mac OS 10.15.7,Safari 16.1,1440x900,1440x820,End of Day 1,SLS,90,B,NaN,NaN,NaN,Pass,End of Day 1,Pass,NaN,Pass,NaN,Pass,schedule_B,schedule_B,16,8,1,Screen 1,Zone1,continue_button,638,NaN,NaN,,NaN,0,1,0,NaN,NaN,NaN,NaN,NaN,trial_left,blueBox.png,blueBox.png,greenBox.png,al2_uncon.png,26,15,NaN,NaN,0.85,0.15,1,1,1,1,Stable,Stable,2.689,1.067,1.697,2.731,inexpert
75,1671139041903,15/12/2022 21:17:21,1671139041856,0,15/12/2022 21:17:21,109680,37,task-rbyw,repeat-u7ds#1->-repeat-l3h2#1,25980797,BLIND,7674790,NaN,complete,NaN,NaN,computer,Desktop or Laptop,Mac OS 10.15.7,Safari 16.1,1440x900,1440x820,End of Day 1,SLS,90,B,NaN,NaN,NaN,Pass,End of Day 1,Pass,NaN,Pass,NaN,Pass,schedule_B,schedule_B,16,8,2,individual,Zone4,timelimit_screen,1003,NaN,NaN,,NaN,0,1,0,NaN,NaN,1,NaN,NaN,trial_left,blueBox.png,blueBox.png,greenBox.png,al2_uncon.png,26,15,NaN,NaN,0.85,0.15,1,1,1,1,Stable,Stable,2.689,1.067,1.697,2.731,inexpert
76,1671139043066,15/12/2022 21:17:23,1671139043029,0,15/12/2022 21:17:23,109680,37,task-rbyw,repeat-u7ds#1->-repeat-l3h2#1,25980797,BLIND,7674790,NaN,complete,NaN,NaN,computer,Desktop or Laptop,Mac OS 10.15.7,Safari 16.1,1440x900,1440x820,End of Day 1,SLS,90,B,NaN,NaN,NaN,Pass,End of Day 1,Pass,NaN,Pass,NaN,Pass,schedule_B,schedule_B,16,8,3,offer,bluebox,response_button_image,1162.00000000001,NaN,NaN,greenBox.png,1,0,1,0,NaN,NaN,NaN,NaN,NaN,trial_left,blueBox.png,blueBox.png,greenBox.png,al2_uncon.png,26,15,NaN,NaN,0.85,0.15,1,1,1,1,Stable,Stable,2.689,1.067,1.697,2.731,inexpert
77,1671139045088,15/12/2022 21:17:25,1671139045024,0,15/12/2022 21:17:25,109680,37,task-rbyw,repeat-u7ds#1->-repeat-l3h2#1,25980797,BLIND,7674790,NaN,complete,NaN,NaN,computer,Desktop or Laptop,Mac OS 10.15.7,Safari 16.1,1440x900,1440x820,End of Day 1,SLS,90,B,NaN,NaN,NaN,Pass,End of Day 1,Pass,NaN,Pass,NaN,Pass,schedule_B,schedule_B,16,8,5,feedback_r,Zone7,timelimit_screen,2006,NaN,NaN,,NaN,0,1,0,NaN,NaN,1,NaN,NaN,trial_left,blueBox.png,blueBox.png,greenBox.png,al2_uncon.png,26,15,NaN,NaN,0.85,0.15,1,1,1,1,Stable,Stable,2.689,1.067,1.697,2.731,inexpert
78,1671139045211,15/12/2022 21:17:25,1671139045178,0,15/12/2022 21:17:25,109680,37,task-rbyw,repeat-u7ds#1->-repeat-l3h2#1,25980797,BLIND,7674790,NaN,complete,NaN,NaN,computer,Desktop or Laptop,Mac OS 10.15.7,Safari 16.1,1440x900,1440x820,End of Day 1,SLS,90,B,NaN,NaN,NaN,Pass,End of Day 1,Pass,NaN,Pass,NaN,Pass,schedule_B,schedule_B,16,8,6,end,Zone1,timelimit_screen,154,NaN,NaN,,NaN,0,1,0,NaN,NaN,1,NaN,NaN,trial_left,blueBox.png,blueBox.png,greenBox.png,al2_uncon.png,26,15,NaN,NaN,0.85,0.15,1,1,1,1,Stable,Stable,2.689,1.067,1.697,2.731,inexpert
79,1671139047833,15/12/2022 21:17:27,1671139047792,0,15/12/2022 21:17:27,109680,37,task-rbyw,repeat-u7ds#1->-repeat-l3h2#1,25980797,BLIND,7674790,NaN,complete,NaN,NaN,computer,Desktop or Laptop,Mac OS 10.15.7,Safari 16.1,1440x900,1440x820,End of Day 1,SLS,90,B,NaN,NaN,NaN,Pass,End of Day 1,Pass,NaN,Pass,NaN,Pass,schedule_B,schedule_B,17,9,1,Screen 1,Zone1,continue_button,2595,NaN,NaN,,NaN,0,1,0,NaN,NaN,NaN,NaN,NaN,trial_left,greenBox.png,greenBox.png,blueBox.png,al2_uncon.png,27,16,NaN,NaN,0.15,0.15,0,1,0,0,Stable,Stable,1.378,0.689,0.878,2.076,inexpert
80,1671139048819,15/12/2022 21:17:28,1671139048778,0,15/12/2022 21:17:28,109680,37,task-rbyw,repeat-u7ds#1->-repeat-l3h2#1,25980797,BLIND,7674790,NaN,complete,NaN,NaN,computer,Desktop or Laptop,Mac OS 10.15.7,Safari 16.1,1440x900,1440x820,End of Day 1,SLS,90,B,NaN,NaN,NaN,Pass,End of Day 1,Pass,NaN,Pass,NaN,Pass,schedule_B,schedule_B,17,9,2,individual,Zone4,timelimit_screen,1003,NaN,NaN,,NaN,0,1,0,NaN,NaN,1,NaN,NaN,trial_left,greenBox.png,greenBox.png,blueBox.png,al2_uncon.png,27,16,NaN,NaN,0.15,0.15,0,1,0,0,Stable,Stable,1.378,0.689,0.878,2.076,inexpert
81,1671139049563,15/12/2022 21:17:29,1671139049526,0,15/12/2022 21:17:29,109680,37,task-rbyw,repeat-u7ds#1->-repeat-l3h2#1,25980797,BLIND,7674790,NaN,complete,NaN,NaN,computer,Desktop or Laptop,Mac OS 10.15.7,Safari 16.1,1440x900,1440x820,End of Day 1,SLS,90,B,NaN,NaN,NaN,Pass,End of Day 1,Pass,NaN,Pass,NaN,Pass,schedule_B,schedule_B,17,9,3,offer,Zone2,response_button_image,737,NaN,NaN,greenBox.png,1,1,0,0,NaN,NaN,NaN,NaN,NaN,trial_left,greenBox.png,greenBox.png,blueBox.png,al2_uncon.png,27,16,NaN,NaN,0.15,0.15,0,1,0,0,Stable,Stable,1.378,0.689,0.878,2.076,inexpert
82,1671139051568,15/12/2022 21:17:31,1671139051519,0,15/12/2022 21:17:31,109680,37,task-rbyw,repeat-u7ds#1->-repeat-l3h2#1,25980797,BLIND,7674790,NaN,complete,NaN,NaN,computer,Desktop or Laptop,Mac OS 10.15.7,Safari 16.1,1440x900,1440x820,End of Day 1,SLS,90,B,NaN,NaN,NaN,Pass,End of Day 1,Pass,NaN,Pass,NaN,Pass,schedule_B,schedule_B,17,9,4,feedback_l,Zone7,timelimit_screen,2003,NaN,NaN,,NaN,0,1,0,NaN,NaN,1,NaN,NaN,trial_left,greenBox.png,greenBox.png,blueBox.png,al2_uncon.png,27,16,NaN,NaN,0.15,0.15,0,1,0,0,Stable,Stable,1.378,0.689,0.878,2.076,inexpert
83,1671139051754,15/12/2022 21:17:31,1671139051667,0,15/12/2022 21:17:31,109680,37,task-rbyw,repeat-u7ds#1->-repeat-l3h2#1,25980797,BLIND,7674790,NaN,complete,NaN,NaN,computer,Desktop or Laptop,Mac OS 10.15.7,Safari 16.1,1440x900,1440x820,End of Day 1,SLS,90,B,NaN,NaN,NaN,Pass,End of Day 1,Pass,NaN,Pass,NaN,Pass,schedule_B,schedule_B,17,9,6,end,Zone1,timelimit_screen,148,NaN,NaN,,NaN,0,1,0,NaN,NaN,1,NaN,NaN,trial_left,greenBox.png,greenBox.png,blueBox.png,al2_uncon.png,27,16,NaN,NaN,0.15,0.15,0,1,0,0,Stable,Stable,1.378,0.689,0.878,2.076,inexpert
84,1671139052508,15/12/2022 21:17:32,1671139052237,0,15/12/2022 21:17:32,109680,37,task-rbyw,repeat-u7ds#1->-repeat-l3h2#1,25980797,BLIND,7674790,NaN,complete,NaN,NaN,computer,Desktop or Laptop,Mac OS 10.15.7,Safari 16.1,1440x900,1440x820,End of Day 1,SLS,90,B,NaN,NaN,NaN,Pass,End of Day 1,Pass,NaN,Pass,NaN,Pass,schedule_B,schedule_B,18,8,1,Screen 1,Zone1,continue_button,548,NaN,NaN,,NaN,0,1,0,NaN,NaN,NaN,NaN,NaN,trial_right,greenBox.png,blueBox.png,greenBox.png,al2_uncon.png,28,17,NaN,NaN,0.15,0.15,0,1,0,1,Stable,Stable,2.714,0.739,1.975,1.134,inexpert
85,1671139053272,15/12/2022 21:17:33,1671139053229,0,15/12/2022 21:17:33,109680,37,task-rbyw,repeat-u7ds#1->-repeat-l3h2#1,25980797,BLIND,7674790,NaN,complete,NaN,NaN,computer,Desktop or Laptop,Mac OS 10.15.7,Safari 16.1,1440x900,1440x820,End of Day 1,SLS,90,B,NaN,NaN,NaN,Pass,End of Day 1,Pass,NaN,Pass,NaN,Pass,schedule_B,schedule_B,18,8,2,individual,Zone4,timelimit_screen,1004,NaN,NaN,,NaN,0,1,0,NaN,NaN,1,NaN,NaN,trial_right,greenBox.png,blueBox.png,greenBox.png,al2_uncon.png,28,17,NaN,NaN,0.15,0.15,0,1,0,1,Stable,Stable,2.714,0.739,1.975,1.134,inexpert
86,1671139054445,15/12/2022 21:17:34,1671139054376,0,15/12/2022 21:17:34,109680,37,task-rbyw,repeat-u7ds#1->-repeat-l3h2#1,25980797,BLIND,7674790,NaN,complete,NaN,NaN,computer,Desktop or Laptop,Mac OS 10.15.7,Safari 16.1,1440x900,1440x820,End of Day 1,SLS,90,B,NaN,NaN,NaN,Pass,End of Day 1,Pass,NaN,Pass,NaN,Pass,schedule_B,schedule_B,18,8,3,offer,Zone3,response_button_image,1136,NaN,NaN,greenBox.png,1,1,0,0,NaN,NaN,NaN,NaN,NaN,trial_right,greenBox.png,blueBox.png,greenBox.png,al2_uncon.png,28,17,NaN,NaN,0.15,0.15,0,1,0,1,Stable,Stable,2.714,0.739,1.975,1.134,inexpert
87,1671139056419,15/12/2022 21:17:36,1671139056378,0,15/12/2022 21:17:36,109680,37,task-rbyw,repeat-u7ds#1->-repeat-l3h2#1,25980797,BLIND,7674790,NaN,complete,NaN,NaN,computer,Desktop or Laptop,Mac OS 10.15.7,Safari 16.1,1440x900,1440x820,End of Day 1,SLS,90,B,NaN,NaN,NaN,Pass,End of Day 1,Pass,NaN,Pass,NaN,Pass,schedule_B,schedule_B,18,8,5,feedback_r,Zone7,timelimit_screen,2006,NaN,NaN,,NaN,0,1,0,NaN,NaN,1,NaN,NaN,trial_right,greenBox.png,blueBox.png,greenBox.png,al2_uncon.png,28,17,NaN,NaN,0.15,0.15,0,1,0,1,Stable,Stable,2.714,0.739,1.975,1.134,inexpert
88,1671139056686,15/12/2022 21:17:36,1671139056524,0,15/12/2022 21:17:36,109680,37,task-rbyw,repeat-u7ds#1->-repeat-l3h2#1,25980797,BLIND,7674790,NaN,complete,NaN,NaN,computer,Desktop or Laptop,Mac OS 10.15.7,Safari 16.1,1440x900,1440x820,End of Day 1,SLS,90,B,NaN,NaN,NaN,Pass,End of Day 1,Pass,NaN,Pass,NaN,Pass,schedule_B,schedule_B,18,8,6,end,Zone1,timelimit_screen,148,NaN,NaN,,NaN,0,1,0,NaN,NaN,1,NaN,NaN,trial_right,greenBox.png,blueBox.png,greenBox.png,al2_uncon.png,28,17,NaN,NaN,0.15,0.15,0,1,0,1,Stable,Stable,2.714,0.739,1.975,1.134,inexpert
89,1671139057206,15/12/2022 21:17:37,1671139057032,0,15/12/2022 21:17:37,109680,37,task-rbyw,repeat-u7ds#1->-repeat-l3h2#1,25980797,BLIND,7674790,NaN,complete,NaN,NaN,computer,Desktop or Laptop,Mac OS 10.15.7,Safari 16.1,1440x900,1440x820,End of Day 1,SLS,90,B,NaN,NaN,NaN,Pass,End of Day 1,Pass,NaN,Pass,NaN,Pass,schedule_B,schedule_B,19,9,1,Screen 1,Zone1,continue_button,486.000000000015,NaN,NaN,,NaN,0,1,0,NaN,NaN,NaN,NaN,NaN,trial_right,greenBox.png,greenBox.png,blueBox.png,al2_uncon.png,29,18,NaN,NaN,0.15,0.15,0,0,1,0,Stable,Stable,3.874,0.676,1.496,1.639,inexpert
90,1671139058377,15/12/2022 21:17:38,1671139058023,0,15/12/2022 21:17:38,109680,37,task-rbyw,repeat-u7ds#1->-repeat-l3h2#1,25980797,BLIND,7674790,NaN,complete,NaN,NaN,computer,Desktop or Laptop,Mac OS 10.15.7,Safari 16.1,1440x900,1440x820,End of Day 1,SLS,90,B,NaN,NaN,NaN,Pass,End of Day 1,Pass,NaN,Pass,NaN,Pass,schedule_B,schedule_B,19,9,2,individual,Zone4,timelimit_screen,1004,NaN,NaN,,NaN,0,1,0,NaN,NaN,1,NaN,NaN,trial_right,greenBox.png,greenBox.png,blueBox.png,al2_uncon.png,29,18,NaN,NaN,0.15,0.15,0,0,1,0,Stable,Stable,3.874,0.676,1.496,1.639,inexpert
91,1671139058840,15/12/2022 21:17:38,1671139058798,0,15/12/2022 21:17:38,109680,37,task-rbyw,repeat-u7ds#1->-repeat-l3h2#1,25980797,BLIND,7674790,NaN,complete,NaN,NaN,computer,Desktop or Laptop,Mac OS 10.15.7,Safari 16.1,1440x900,1440x820,End of Day 1,SLS,90,B,NaN,NaN,NaN,Pass,End of Day 1,Pass,NaN,Pass,NaN,Pass,schedule_B,schedule_B,19,9,3,offer,Zone3,response_button_image,764,NaN,NaN,blueBox.png,1,0,1,0,NaN,NaN,NaN,NaN,NaN,trial_right,greenBox.png,greenBox.png,blueBox.png,al2_uncon.png,29,18,NaN,NaN,0.15,0.15,0,0,1,0,Stable,Stable,3.874,0.676,1.496,1.639,inexpert
92,1671139060831,15/12/2022 21:17:40,1671139060789,0,15/12/2022 21:17:40,109680,37,task-rbyw,repeat-u7ds#1->-repeat-l3h2#1,25980797,BLIND,7674790,NaN,complete,NaN,NaN,computer,Desktop or Laptop,Mac OS 10.15.7,Safari 16.1,1440x900,1440x820,End of Day 1,SLS,90,B,NaN,NaN,NaN,Pass,End of Day 1,Pass,NaN,Pass,NaN,Pass,schedule_B,schedule_B,19,9,5,feedback_r,Zone7,timelimit_screen,2006,NaN,NaN,,NaN,0,1,0,NaN,NaN,1,NaN,NaN,trial_right,greenBox.png,greenBox.png,blueBox.png,al2_uncon.png,29,18,NaN,NaN,0.15,0.15,0,0,1,0,Stable,Stable,3.874,0.676,1.496,1.639,inexpert
93,1671139060986,15/12/2022 21:17:40,1671139060944,0,15/12/2022 21:17:40,109680,37,task-rbyw,repeat-u7ds#1->-repeat-l3h2#1,25980797,BLIND,7674790,NaN,complete,NaN,NaN,computer,Desktop or Laptop,Mac OS 10.15.7,Safari 16.1,1440x900,1440x820,End of Day 1,SLS,90,B,NaN,NaN,NaN,Pass,End of Day 1,Pass,NaN,Pass,NaN,Pass,schedule_B,schedule_B,19,9,6,end,Zone1,timelimit_screen,155,NaN,NaN,,NaN,0,1,0,NaN,NaN,1,NaN,NaN,trial_right,greenBox.png,greenBox.png,blueBox.png,al2_uncon.png,29,18,NaN,NaN,0.15,0.15,0,0,1,0,Stable,Stable,3.874,0.676,1.496,1.639,inexpert
94,1671139061992,15/12/2022 21:17:41,1671139061953,0,15/12/2022 21:17:41,109680,37,task-rbyw,repeat-u7ds#1->-repeat-l3h2#1,25980797,BLIND,7674790,NaN,complete,NaN,NaN,computer,Desktop or Laptop,Mac OS 10.15.7,Safari 16.1,1440x900,1440x820,End of Day 1,SLS,90,B,NaN,NaN,NaN,Pass,End of Day 1,Pass,NaN,Pass,NaN,Pass,schedule_B,schedule_B,20,10,1,Screen 1,Zone1,continue_button,985,NaN,NaN,,NaN,0,1,0,NaN,NaN,NaN,NaN,NaN,trial_left,greenBox.png,greenBox.png,blueBox.png,al2_uncon.png,30,19,NaN,NaN,0.15,0.15,0,1,0,0,Stable,Stable,1.252,1.193,0.853,2.681,inexpert
95,1671139062998,15/12/2022 21:17:42,1671139062954,0,15/12/2022 21:17:42,109680,37,task-rbyw,repeat-u7ds#1->-repeat-l3h2#1,25980797,BLIND,7674790,NaN,complete,NaN,NaN,computer,Desktop or Laptop,Mac OS 10.15.7,Safari 16.1,1440x900,1440x820,End of Day 1,SLS,90,B,NaN,NaN,NaN,Pass,End of Day 1,Pass,NaN,Pass,NaN,Pass,schedule_B,schedule_B,20,10,2,individual,Zone4,timelimit_screen,1004,NaN,NaN,,NaN,0,1,0,NaN,NaN,1,NaN,NaN,trial_left,greenBox.png,greenBox.png,blueBox.png,al2_uncon.png,30,19,NaN,NaN,0.15,0.15,0,1,0,0,Stable,Stable,1.252,1.193,0.853,2.681,inexpert
96,1671139064131,15/12/2022 21:17:44,1671139064092,0,15/12/2022 21:17:44,109680,37,task-rbyw,repeat-u7ds#1->-repeat-l3h2#1,25980797,BLIND,7674790,NaN,complete,NaN,NaN,computer,Desktop or Laptop,Mac OS 10.15.7,Safari 16.1,1440x900,1440x820,End of Day 1,SLS,90,B,NaN,NaN,NaN,Pass,End of Day 1,Pass,NaN,Pass,NaN,Pass,schedule_B,schedule_B,20,10,3,offer,bluebox,response_button_image,1126,NaN,NaN,blueBox.png,1,0,1,0,NaN,NaN,NaN,NaN,NaN,trial_left,greenBox.png,greenBox.png,blueBox.png,al2_uncon.png,30,19,NaN,NaN,0.15,0.15,0,1,0,0,Stable,Stable,1.252,1.193,0.853,2.681,inexpert
97,1671139066138,15/12/2022 21:17:46,1671139066080,0,15/12/2022 21:17:46,109680,37,task-rbyw,repeat-u7ds#1->-repeat-l3h2#1,25980797,BLIND,7674790,NaN,complete,NaN,NaN,computer,Desktop or Laptop,Mac OS 10.15.7,Safari 16.1,1440x900,1440x820,End of Day 1,SLS,90,B,NaN,NaN,NaN,Pass,End of Day 1,Pass,NaN,Pass,NaN,Pass,schedule_B,schedule_B,20,10,5,feedback_r,Zone7,timelimit_screen,2004,NaN,NaN,,NaN,0,1,0,NaN,NaN,1,NaN,NaN,trial_left,greenBox.png,greenBox.png,blueBox.png,al2_uncon.png,30,19,NaN,NaN,0.15,0.15,0,1,0,0,Stable,Stable,1.252,1.193,0.853,2.681,inexpert
98,1671139066270,15/12/2022 21:17:46,1671139066236,0,15/12/2022 21:17:46,109680,37,task-rbyw,repeat-u7ds#1->-repeat-l3h2#1,25980797,BLIND,7674790,NaN,complete,NaN,NaN,computer,Desktop or Laptop,Mac OS 10.15.7,Safari 16.1,1440x900,1440x820,End of Day 1,SLS,90,B,NaN,NaN,NaN,Pass,End of Day 1,Pass,NaN,Pass,NaN,Pass,schedule_B,schedule_B,20,10,6,end,Zone1,timelimit_screen,155,NaN,NaN,,NaN,0,1,0,NaN,NaN,1,NaN,NaN,trial_left,greenBox.png,greenBox.png,blueBox.png,al2_uncon.png,30,19,NaN,NaN,0.15,0.15,0,1,0,0,Stable,Stable,1.252,1.193,0.853,2.681,inexpert
99,1671139067426,15/12/2022 21:17:47,1671139067397,0,15/12/2022 21:17:47,109680,37,task-rbyw,repeat-u7ds#1->-repeat-l3h2#1,25980797,BLIND,7674790,NaN,complete,NaN,NaN,computer,Desktop or Laptop,Mac OS 10.15.7,Safari 16.1,1440x900,1440x820,End of Day 1,SLS,90,B,NaN,NaN,NaN,Pass,End of Day 1,Pass,NaN,Pass,NaN,Pass,schedule_B,schedule_B,21,10,1,Screen 1,Zone1,continue_button,1140,NaN,NaN,,NaN,0,1,0,NaN,NaN,NaN,NaN,NaN,trial_right,greenBox.png,greenBox.png,blueBox.png,al2_uncon.png,41,20,NaN,NaN,0.15,0.15,0,0,1,0,Stable,Stable,3.521,1.723,1.37,1.655,inexpert
100,1671139068429,15/12/2022 21:17:48,1671139068391,0,15/12/2022 21:17:48,109680,37,task-rbyw,repeat-u7ds#1->-repeat-l3h2#1,25980797,BLIND,7674790,NaN,complete,NaN,NaN,computer,Desktop or Laptop,Mac OS 10.15.7,Safari 16.1,1440x900,1440x820,End of Day 1,SLS,90,B,NaN,NaN,NaN,Pass,End of Day 1,Pass,NaN,Pass,NaN,Pass,schedule_B,schedule_B,21,10,2,individual,Zone4,timelimit_screen,1003,NaN,NaN,,NaN,0,1,0,NaN,NaN,1,NaN,NaN,trial_right,greenBox.png,greenBox.png,blueBox.png,al2_uncon.png,41,20,NaN,NaN,0.15,0.15,0,0,1,0,Stable,Stable,3.521,1.723,1.37,1.655,inexpert
101,1671139069165,15/12/2022 21:17:49,1671139069136,0,15/12/2022 21:17:49,109680,37,task-rbyw,repeat-u7ds#1->-repeat-l3h2#1,25980797,BLIND,7674790,NaN,complete,NaN,NaN,computer,Desktop or Laptop,Mac OS 10.15.7,Safari 16.1,1440x900,1440x820,End of Day 1,SLS,90,B,NaN,NaN,NaN,Pass,End of Day 1,Pass,NaN,Pass,NaN,Pass,schedule_B,schedule_B,21,10,3,offer,Zone2,response_button_image,734.999999999985,NaN,NaN,greenBox.png,1,1,0,0,NaN,NaN,NaN,NaN,NaN,trial_right,greenBox.png,greenBox.png,blueBox.png,al2_uncon.png,41,20,NaN,NaN,0.15,0.15,0,0,1,0,Stable,Stable,3.521,1.723,1.37,1.655,inexpert
102,1671139071236,15/12/2022 21:17:51,1671139071139,0,15/12/2022 21:17:51,109680,37,task-rbyw,repeat-u7ds#1->-repeat-l3h2#1,25980797,BLIND,7674790,NaN,complete,NaN,NaN,computer,Desktop or Laptop,Mac OS 10.15.7,Safari 16.1,1440x900,1440x820,End of Day 1,SLS,90,B,NaN,NaN,NaN,Pass,End of Day 1,Pass,NaN,Pass,NaN,Pass,schedule_B,schedule_B,21,10,4,feedback_l,Zone7,timelimit_screen,2005,NaN,NaN,,NaN,0,1,0,NaN,NaN,1,NaN,NaN,trial_right,greenBox.png,greenBox.png,blueBox.png,al2_uncon.png,41,20,NaN,NaN,0.15,0.15,0,0,1,0,Stable,Stable,3.521,1.723,1.37,1.655,inexpert
103,1671139071323,15/12/2022 21:17:51,1671139071294,0,15/12/2022 21:17:51,109680,37,task-rbyw,repeat-u7ds#1->-repeat-l3h2#1,25980797,BLIND,7674790,NaN,complete,NaN,NaN,computer,Desktop or Laptop,Mac OS 10.15.7,Safari 16.1,1440x900,1440x820,End of Day 1,SLS,90,B,NaN,NaN,NaN,Pass,End of Day 1,Pass,NaN,Pass,NaN,Pass,schedule_B,schedule_B,21,10,6,end,Zone1,timelimit_screen,155,NaN,NaN,,NaN,0,1,0,NaN,NaN,1,NaN,NaN,trial_right,greenBox.png,greenBox.png,blueBox.png,al2_uncon.png,41,20,NaN,NaN,0.15,0.15,0,0,1,0,Stable,Stable,3.521,1.723,1.37,1.655,inexpert
104,1671139072439,15/12/2022 21:17:52,1671139072387,0,15/12/2022 21:17:52,109680,37,task-rbyw,repeat-u7ds#1->-repeat-l3h2#1,25980797,BLIND,7674790,NaN,complete,NaN,NaN,computer,Desktop or Laptop,Mac OS 10.15.7,Safari 16.1,1440x900,1440x820,End of Day 1,SLS,90,B,NaN,NaN,NaN,Pass,End of Day 1,Pass,NaN,Pass,NaN,Pass,schedule_B,schedule_B,22,11,1,Screen 1,Zone1,continue_button,1074,NaN,NaN,,NaN,0,1,0,NaN,NaN,NaN,NaN,NaN,trial_left,blueBox.png,blueBox.png,greenBox.png,al2_uncon.png,42,21,NaN,NaN,0.85,0.15,1,1,1,1,Stable,Stable,2.336,0.651,1.685,2.882,inexpert
105,1671139073436,15/12/2022 21:17:53,1671139073388,0,15/12/2022 21:17:53,109680,37,task-rbyw,repeat-u7ds#1->-repeat-l3h2#1,25980797,BLIND,7674790,NaN,complete,NaN,NaN,computer,Desktop or Laptop,Mac OS 10.15.7,Safari 16.1,1440x900,1440x820,End of Day 1,SLS,90,B,NaN,NaN,NaN,Pass,End of Day 1,Pass,NaN,Pass,NaN,Pass,schedule_B,schedule_B,22,11,2,individual,Zone4,timelimit_screen,1004,NaN,NaN,,NaN,0,1,0,NaN,NaN,1,NaN,NaN,trial_left,blueBox.png,blueBox.png,greenBox.png,al2_uncon.png,42,21,NaN,NaN,0.85,0.15,1,1,1,1,Stable,Stable,2.336,0.651,1.685,2.882,inexpert
106,1671139073973,15/12/2022 21:17:53,1671139073766,0,15/12/2022 21:17:53,109680,37,task-rbyw,repeat-u7ds#1->-repeat-l3h2#1,25980797,BLIND,7674790,NaN,complete,NaN,NaN,computer,Desktop or Laptop,Mac OS 10.15.7,Safari 16.1,1440x900,1440x820,End of Day 1,SLS,90,B,NaN,NaN,NaN,Pass,End of Day 1,Pass,NaN,Pass,NaN,Pass,schedule_B,schedule_B,22,11,3,offer,Zone2,response_button_image,367,NaN,NaN,blueBox.png,1,1,0,0,NaN,NaN,NaN,NaN,NaN,trial_left,blueBox.png,blueBox.png,greenBox.png,al2_uncon.png,42,21,NaN,NaN,0.85,0.15,1,1,1,1,Stable,Stable,2.336,0.651,1.685,2.882,inexpert
107,1671139075841,15/12/2022 21:17:55,1671139075771,0,15/12/2022 21:17:55,109680,37,task-rbyw,repeat-u7ds#1->-repeat-l3h2#1,25980797,BLIND,7674790,NaN,complete,NaN,NaN,computer,Desktop or Laptop,Mac OS 10.15.7,Safari 16.1,1440x900,1440x820,End of Day 1,SLS,90,B,NaN,NaN,NaN,Pass,End of Day 1,Pass,NaN,Pass,NaN,Pass,schedule_B,schedule_B,22,11,4,feedback_l,Zone7,timelimit_screen,2007,NaN,NaN,,NaN,0,1,0,NaN,NaN,1,NaN,NaN,trial_left,blueBox.png,blueBox.png,greenBox.png,al2_uncon.png,42,21,NaN,NaN,0.85,0.15,1,1,1,1,Stable,Stable,2.336,0.651,1.685,2.882,inexpert
108,1671139076078,15/12/2022 21:17:56,1671139075927,0,15/12/2022 21:17:55,109680,37,task-rbyw,repeat-u7ds#1->-repeat-l3h2#1,25980797,BLIND,7674790,NaN,complete,NaN,NaN,computer,Desktop or Laptop,Mac OS 10.15.7,Safari 16.1,1440x900,1440x820,End of Day 1,SLS,90,B,NaN,NaN,NaN,Pass,End of Day 1,Pass,NaN,Pass,NaN,Pass,schedule_B,schedule_B,22,11,6,end,Zone1,timelimit_screen,156,NaN,NaN,,NaN,0,1,0,NaN,NaN,1,NaN,NaN,trial_left,blueBox.png,blueBox.png,greenBox.png,al2_uncon.png,42,21,NaN,NaN,0.85,0.15,1,1,1,1,Stable,Stable,2.336,0.651,1.685,2.882,inexpert
109,1671139077169,15/12/2022 21:17:57,1671139077096,0,15/12/2022 21:17:57,109680,37,task-rbyw,repeat-u7ds#1->-repeat-l3h2#1,25980797,BLIND,7674790,NaN,complete,NaN,NaN,computer,Desktop or Laptop,Mac OS 10.15.7,Safari 16.1,1440x900,1440x820,End of Day 1,SLS,90,B,NaN,NaN,NaN,Pass,End of Day 1,Pass,NaN,Pass,NaN,Pass,schedule_B,schedule_B,23,11,1,Screen 1,Zone1,continue_button,1151,NaN,NaN,,NaN,0,1,0,NaN,NaN,NaN,NaN,NaN,trial_right,blueBox.png,blueBox.png,greenBox.png,al2_uncon.png,43,22,NaN,NaN,0.85,0.15,1,0,0,1,Stable,Stable,3.622,1.319,1.193,1.067,inexpert
110,1671139078164,15/12/2022 21:17:58,1671139078098,0,15/12/2022 21:17:58,109680,37,task-rbyw,repeat-u7ds#1->-repeat-l3h2#1,25980797,BLIND,7674790,NaN,complete,NaN,NaN,computer,Desktop or Laptop,Mac OS 10.15.7,Safari 16.1,1440x900,1440x820,End of Day 1,SLS,90,B,NaN,NaN,NaN,Pass,End of Day 1,Pass,NaN,Pass,NaN,Pass,schedule_B,schedule_B,23,11,2,individual,Zone4,timelimit_screen,1005,NaN,NaN,,NaN,0,1,0,NaN,NaN,1,NaN,NaN,trial_right,blueBox.png,blueBox.png,greenBox.png,al2_uncon.png,43,22,NaN,NaN,0.85,0.15,1,0,0,1,Stable,Stable,3.622,1.319,1.193,1.067,inexpert
111,1671139078647,15/12/2022 21:17:58,1671139078618,0,15/12/2022 21:17:58,109680,37,task-rbyw,repeat-u7ds#1->-repeat-l3h2#1,25980797,BLIND,7674790,NaN,complete,NaN,NaN,computer,Desktop or Laptop,Mac OS 10.15.7,Safari 16.1,1440x900,1440x820,End of Day 1,SLS,90,B,NaN,NaN,NaN,Pass,End of Day 1,Pass,NaN,Pass,NaN,Pass,schedule_B,schedule_B,23,11,3,offer,Zone2,response_button_image,509,NaN,NaN,blueBox.png,1,1,0,0,NaN,NaN,NaN,NaN,NaN,trial_right,blueBox.png,blueBox.png,greenBox.png,al2_uncon.png,43,22,NaN,NaN,0.85,0.15,1,0,0,1,Stable,Stable,3.622,1.319,1.193,1.067,inexpert
112,1671139080803,15/12/2022 21:18:00,1671139080597,0,15/12/2022 21:18:00,109680,37,task-rbyw,repeat-u7ds#1->-repeat-l3h2#1,25980797,BLIND,7674790,NaN,complete,NaN,NaN,computer,Desktop or Laptop,Mac OS 10.15.7,Safari 16.1,1440x900,1440x820,End of Day 1,SLS,90,B,NaN,NaN,NaN,Pass,End of Day 1,Pass,NaN,Pass,NaN,Pass,schedule_B,schedule_B,23,11,4,feedback_l,Zone7,timelimit_screen,1994,NaN,NaN,,NaN,0,1,0,NaN,NaN,1,NaN,NaN,trial_right,blueBox.png,blueBox.png,greenBox.png,al2_uncon.png,43,22,NaN,NaN,0.85,0.15,1,0,0,1,Stable,Stable,3.622,1.319,1.193,1.067,inexpert
113,1671139080892,15/12/2022 21:18:00,1671139080753,0,15/12/2022 21:18:00,109680,37,task-rbyw,repeat-u7ds#1->-repeat-l3h2#1,25980797,BLIND,7674790,NaN,complete,NaN,NaN,computer,Desktop or Laptop,Mac OS 10.15.7,Safari 16.1,1440x900,1440x820,End of Day 1,SLS,90,B,NaN,NaN,NaN,Pass,End of Day 1,Pass,NaN,Pass,NaN,Pass,schedule_B,schedule_B,23,11,6,end,Zone1,timelimit_screen,156,NaN,NaN,,NaN,0,1,0,NaN,NaN,1,NaN,NaN,trial_right,blueBox.png,blueBox.png,greenBox.png,al2_uncon.png,43,22,NaN,NaN,0.85,0.15,1,0,0,1,Stable,Stable,3.622,1.319,1.193,1.067,inexpert
114,1671139081387,15/12/2022 21:18:01,1671139081349,0,15/12/2022 21:18:01,109680,37,task-rbyw,repeat-u7ds#1->-repeat-l3h2#1,25980797,BLIND,7674790,NaN,complete,NaN,NaN,computer,Desktop or Laptop,Mac OS 10.15.7,Safari 16.1,1440x900,1440x820,End of Day 1,SLS,90,B,NaN,NaN,NaN,Pass,End of Day 1,Pass,NaN,Pass,NaN,Pass,schedule_B,schedule_B,24,12,1,Screen 1,Zone1,continue_button,574.999999999985,NaN,NaN,,NaN,0,1,0,NaN,NaN,NaN,NaN,NaN,trial_left,blueBox.png,greenBox.png,blueBox.png,al2_uncon.png,44,23,NaN,NaN,0.85,0.15,1,0,0,0,Stable,Stable,1.731,0.853,2,1.202,inexpert
115,1671139082373,15/12/2022 21:18:02,1671139082341,0,15/12/2022 21:18:02,109680,37,task-rbyw,repeat-u7ds#1->-repeat-l3h2#1,25980797,BLIND,7674790,NaN,complete,NaN,NaN,computer,Desktop or Laptop,Mac OS 10.15.7,Safari 16.1,1440x900,1440x820,End of Day 1,SLS,90,B,NaN,NaN,NaN,Pass,End of Day 1,Pass,NaN,Pass,NaN,Pass,schedule_B,schedule_B,24,12,2,individual,Zone4,timelimit_screen,1003,NaN,NaN,,NaN,0,1,0,NaN,NaN,1,NaN,NaN,trial_left,blueBox.png,greenBox.png,blueBox.png,al2_uncon.png,44,23,NaN,NaN,0.85,0.15,1,0,0,0,Stable,Stable,1.731,0.853,2,1.202,inexpert
116,1671139082936,15/12/2022 21:18:02,1671139082897,0,15/12/2022 21:18:02,109680,37,task-rbyw,repeat-u7ds#1->-repeat-l3h2#1,25980797,BLIND,7674790,NaN,complete,NaN,NaN,computer,Desktop or Laptop,Mac OS 10.15.7,Safari 16.1,1440x900,1440x820,End of Day 1,SLS,90,B,NaN,NaN,NaN,Pass,End of Day 1,Pass,NaN,Pass,NaN,Pass,schedule_B,schedule_B,24,12,3,offer,Zone2,response_button_image,545,NaN,NaN,greenBox.png,1,0,1,0,NaN,NaN,NaN,NaN,NaN,trial_left,blueBox.png,greenBox.png,blueBox.png,al2_uncon.png,44,23,NaN,NaN,0.85,0.15,1,0,0,0,Stable,Stable,1.731,0.853,2,1.202,inexpert
117,1671139084923,15/12/2022 21:18:04,1671139084889,0,15/12/2022 21:18:04,109680,37,task-rbyw,repeat-u7ds#1->-repeat-l3h2#1,25980797,BLIND,7674790,NaN,complete,NaN,NaN,computer,Desktop or Laptop,Mac OS 10.15.7,Safari 16.1,1440x900,1440x820,End of Day 1,SLS,90,B,NaN,NaN,NaN,Pass,End of Day 1,Pass,NaN,Pass,NaN,Pass,schedule_B,schedule_B,24,12,4,feedback_l,Zone7,timelimit_screen,2005,NaN,NaN,,NaN,0,1,0,NaN,NaN,1,NaN,NaN,trial_left,blueBox.png,greenBox.png,blueBox.png,al2_uncon.png,44,23,NaN,NaN,0.85,0.15,1,0,0,0,Stable,Stable,1.731,0.853,2,1.202,inexpert
118,1671139085074,15/12/2022 21:18:05,1671139085045,0,15/12/2022 21:18:05,109680,37,task-rbyw,repeat-u7ds#1->-repeat-l3h2#1,25980797,BLIND,7674790,NaN,complete,NaN,NaN,computer,Desktop or Laptop,Mac OS 10.15.7,Safari 16.1,1440x900,1440x820,End of Day 1,SLS,90,B,NaN,NaN,NaN,Pass,End of Day 1,Pass,NaN,Pass,NaN,Pass,schedule_B,schedule_B,24,12,6,end,Zone1,timelimit_screen,155,NaN,NaN,,NaN,0,1,0,NaN,NaN,1,NaN,NaN,trial_left,blueBox.png,greenBox.png,blueBox.png,al2_uncon.png,44,23,NaN,NaN,0.85,0.15,1,0,0,0,Stable,Stable,1.731,0.853,2,1.202,inexpert
119,1671139087117,15/12/2022 21:18:07,1671139087081,0,15/12/2022 21:18:07,109680,37,task-rbyw,repeat-u7ds#1->-repeat-l3h2#1,25980797,BLIND,7674790,NaN,complete,NaN,NaN,computer,Desktop or Laptop,Mac OS 10.15.7,Safari 16.1,1440x900,1440x820,End of Day 1,SLS,90,B,NaN,NaN,NaN,Pass,End of Day 1,Pass,NaN,Pass,NaN,Pass,schedule_B,schedule_B,25,13,1,Screen 1,Zone1,continue_button,2017.00000000001,NaN,NaN,,NaN,0,1,0,NaN,NaN,NaN,NaN,NaN,trial_left,blueBox.png,blueBox.png,greenBox.png,al2_uncon.png,45,24,NaN,NaN,0.85,0.15,1,1,1,1,Stable,Stable,2.109,1.798,1.508,2.782,inexpert
120,1671139088120,15/12/2022 21:18:08,1671139088079,0,15/12/2022 21:18:08,109680,37,task-rbyw,repeat-u7ds#1->-repeat-l3h2#1,25980797,BLIND,7674790,NaN,complete,NaN,NaN,computer,Desktop or Laptop,Mac OS 10.15.7,Safari 16.1,1440x900,1440x820,End of Day 1,SLS,90,B,NaN,NaN,NaN,Pass,End of Day 1,Pass,NaN,Pass,NaN,Pass,schedule_B,schedule_B,25,13,2,individual,Zone4,timelimit_screen,1003,NaN,NaN,,NaN,0,1,0,NaN,NaN,1,NaN,NaN,trial_left,blueBox.png,blueBox.png,greenBox.png,al2_uncon.png,45,24,NaN,NaN,0.85,0.15,1,1,1,1,Stable,Stable,2.109,1.798,1.508,2.782,inexpert
121,1671139088886,15/12/2022 21:18:08,1671139088840,0,15/12/2022 21:18:08,109680,37,task-rbyw,repeat-u7ds#1->-repeat-l3h2#1,25980797,BLIND,7674790,NaN,complete,NaN,NaN,computer,Desktop or Laptop,Mac OS 10.15.7,Safari 16.1,1440x900,1440x820,End of Day 1,SLS,90,B,NaN,NaN,NaN,Pass,End of Day 1,Pass,NaN,Pass,NaN,Pass,schedule_B,schedule_B,25,13,3,offer,bluebox,response_button_image,750,NaN,NaN,greenBox.png,1,0,1,0,NaN,NaN,NaN,NaN,NaN,trial_left,blueBox.png,blueBox.png,greenBox.png,al2_uncon.png,45,24,NaN,NaN,0.85,0.15,1,1,1,1,Stable,Stable,2.109,1.798,1.508,2.782,inexpert
122,1671139090882,15/12/2022 21:18:10,1671139090840,0,15/12/2022 21:18:10,109680,37,task-rbyw,repeat-u7ds#1->-repeat-l3h2#1,25980797,BLIND,7674790,NaN,complete,NaN,NaN,computer,Desktop or Laptop,Mac OS 10.15.7,Safari 16.1,1440x900,1440x820,End of Day 1,SLS,90,B,NaN,NaN,NaN,Pass,End of Day 1,Pass,NaN,Pass,NaN,Pass,schedule_B,schedule_B,25,13,5,feedback_r,Zone7,timelimit_screen,2003,NaN,NaN,,NaN,0,1,0,NaN,NaN,1,NaN,NaN,trial_left,blueBox.png,blueBox.png,greenBox.png,al2_uncon.png,45,24,NaN,NaN,0.85,0.15,1,1,1,1,Stable,Stable,2.109,1.798,1.508,2.782,inexpert
123,1671139091030,15/12/2022 21:18:11,1671139090995,0,15/12/2022 21:18:10,109680,37,task-rbyw,repeat-u7ds#1->-repeat-l3h2#1,25980797,BLIND,7674790,NaN,complete,NaN,NaN,computer,Desktop or Laptop,Mac OS 10.15.7,Safari 16.1,1440x900,1440x820,End of Day 1,SLS,90,B,NaN,NaN,NaN,Pass,End of Day 1,Pass,NaN,Pass,NaN,Pass,schedule_B,schedule_B,25,13,6,end,Zone1,timelimit_screen,155,NaN,NaN,,NaN,0,1,0,NaN,NaN,1,NaN,NaN,trial_left,blueBox.png,blueBox.png,greenBox.png,al2_uncon.png,45,24,NaN,NaN,0.85,0.15,1,1,1,1,Stable,Stable,2.109,1.798,1.508,2.782,inexpert
124,1671139094056,15/12/2022 21:18:14,1671139094012,0,15/12/2022 21:18:14,109680,37,task-rbyw,repeat-u7ds#1->-repeat-l3h2#1,25980797,BLIND,7674790,NaN,complete,NaN,NaN,computer,Desktop or Laptop,Mac OS 10.15.7,Safari 16.1,1440x900,1440x820,End of Day 1,SLS,90,B,NaN,NaN,NaN,Pass,End of Day 1,Pass,NaN,Pass,NaN,Pass,schedule_B,schedule_B,26,12,1,Screen 1,Zone1,continue_button,2993,NaN,NaN,,NaN,0,1,0,NaN,NaN,NaN,NaN,NaN,trial_right,blueBox.png,greenBox.png,blueBox.png,al2_uncon.png,46,25,NaN,NaN,0.85,0.15,1,1,1,0,Stable,Stable,2.916,1.294,1.962,2.361,inexpert
125,1671139095034,15/12/2022 21:18:15,1671139095000,0,15/12/2022 21:18:15,109680,37,task-rbyw,repeat-u7ds#1->-repeat-l3h2#1,25980797,BLIND,7674790,NaN,complete,NaN,NaN,computer,Desktop or Laptop,Mac OS 10.15.7,Safari 16.1,1440x900,1440x820,End of Day 1,SLS,90,B,NaN,NaN,NaN,Pass,End of Day 1,Pass,NaN,Pass,NaN,Pass,schedule_B,schedule_B,26,12,2,individual,Zone4,timelimit_screen,1005,NaN,NaN,,NaN,0,1,0,NaN,NaN,1,NaN,NaN,trial_right,blueBox.png,greenBox.png,blueBox.png,al2_uncon.png,46,25,NaN,NaN,0.85,0.15,1,1,1,0,Stable,Stable,2.916,1.294,1.962,2.361,inexpert
126,1671139097051,15/12/2022 21:18:17,1671139096832,0,15/12/2022 21:18:16,109680,37,task-rbyw,repeat-u7ds#1->-repeat-l3h2#1,25980797,BLIND,7674790,NaN,complete,NaN,NaN,computer,Desktop or Laptop,Mac OS 10.15.7,Safari 16.1,1440x900,1440x820,End of Day 1,SLS,90,B,NaN,NaN,NaN,Pass,End of Day 1,Pass,NaN,Pass,NaN,Pass,schedule_B,schedule_B,26,12,3,offer,Zone2,response_button_image,1820.99999999997,NaN,NaN,greenBox.png,1,0,1,0,NaN,NaN,NaN,NaN,NaN,trial_right,blueBox.png,greenBox.png,blueBox.png,al2_uncon.png,46,25,NaN,NaN,0.85,0.15,1,1,1,0,Stable,Stable,2.916,1.294,1.962,2.361,inexpert
127,1671139098870,15/12/2022 21:18:18,1671139098829,0,15/12/2022 21:18:18,109680,37,task-rbyw,repeat-u7ds#1->-repeat-l3h2#1,25980797,BLIND,7674790,NaN,complete,NaN,NaN,computer,Desktop or Laptop,Mac OS 10.15.7,Safari 16.1,1440x900,1440x820,End of Day 1,SLS,90,B,NaN,NaN,NaN,Pass,End of Day 1,Pass,NaN,Pass,NaN,Pass,schedule_B,schedule_B,26,12,4,feedback_l,Zone7,timelimit_screen,2001,NaN,NaN,,NaN,0,1,0,NaN,NaN,1,NaN,NaN,trial_right,blueBox.png,greenBox.png,blueBox.png,al2_uncon.png,46,25,NaN,NaN,0.85,0.15,1,1,1,0,Stable,Stable,2.916,1.294,1.962,2.361,inexpert
128,1671139099339,15/12/2022 21:18:19,1671139098983,0,15/12/2022 21:18:18,109680,37,task-rbyw,repeat-u7ds#1->-repeat-l3h2#1,25980797,BLIND,7674790,NaN,complete,NaN,NaN,computer,Desktop or Laptop,Mac OS 10.15.7,Safari 16.1,1440x900,1440x820,End of Day 1,SLS,90,B,NaN,NaN,NaN,Pass,End of Day 1,Pass,NaN,Pass,NaN,Pass,schedule_B,schedule_B,26,12,6,end,Zone1,timelimit_screen,154,NaN,NaN,,NaN,0,1,0,NaN,NaN,1,NaN,NaN,trial_right,blueBox.png,greenBox.png,blueBox.png,al2_uncon.png,46,25,NaN,NaN,0.85,0.15,1,1,1,0,Stable,Stable,2.916,1.294,1.962,2.361,inexpert
129,1671139101240,15/12/2022 21:18:21,1671139101066,0,15/12/2022 21:18:21,109680,37,task-rbyw,repeat-u7ds#1->-repeat-l3h2#1,25980797,BLIND,7674790,NaN,complete,NaN,NaN,computer,Desktop or Laptop,Mac OS 10.15.7,Safari 16.1,1440x900,1440x820,End of Day 1,SLS,90,B,NaN,NaN,NaN,Pass,End of Day 1,Pass,NaN,Pass,NaN,Pass,schedule_B,schedule_B,27,13,1,Screen 1,Zone1,continue_button,2062,NaN,NaN,,NaN,0,1,0,NaN,NaN,NaN,NaN,NaN,trial_right,blueBox.png,blueBox.png,greenBox.png,al2_uncon.png,47,26,NaN,NaN,0.85,0.15,1,0,0,1,Stable,Stable,2.487,1.697,1.13,1.286,inexpert
130,1671139102285,15/12/2022 21:18:22,1671139102067,0,15/12/2022 21:18:22,109680,37,task-rbyw,repeat-u7ds#1->-repeat-l3h2#1,25980797,BLIND,7674790,NaN,complete,NaN,NaN,computer,Desktop or Laptop,Mac OS 10.15.7,Safari 16.1,1440x900,1440x820,End of Day 1,SLS,90,B,NaN,NaN,NaN,Pass,End of Day 1,Pass,NaN,Pass,NaN,Pass,schedule_B,schedule_B,27,13,2,individual,Zone4,timelimit_screen,1004,NaN,NaN,,NaN,0,1,0,NaN,NaN,1,NaN,NaN,trial_right,blueBox.png,blueBox.png,greenBox.png,al2_uncon.png,47,26,NaN,NaN,0.85,0.15,1,0,0,1,Stable,Stable,2.487,1.697,1.13,1.286,inexpert
131,1671139103896,15/12/2022 21:18:23,1671139103862,0,15/12/2022 21:18:23,109680,37,task-rbyw,repeat-u7ds#1->-repeat-l3h2#1,25980797,BLIND,7674790,NaN,complete,NaN,NaN,computer,Desktop or Laptop,Mac OS 10.15.7,Safari 16.1,1440x900,1440x820,End of Day 1,SLS,90,B,NaN,NaN,NaN,Pass,End of Day 1,Pass,NaN,Pass,NaN,Pass,schedule_B,schedule_B,27,13,3,offer,Zone3,response_button_image,1783.00000000003,NaN,NaN,greenBox.png,1,0,1,0,NaN,NaN,NaN,NaN,NaN,trial_right,blueBox.png,blueBox.png,greenBox.png,al2_uncon.png,47,26,NaN,NaN,0.85,0.15,1,0,0,1,Stable,Stable,2.487,1.697,1.13,1.286,inexpert
132,1671139105956,15/12/2022 21:18:25,1671139105864,0,15/12/2022 21:18:25,109680,37,task-rbyw,repeat-u7ds#1->-repeat-l3h2#1,25980797,BLIND,7674790,NaN,complete,NaN,NaN,computer,Desktop or Laptop,Mac OS 10.15.7,Safari 16.1,1440x900,1440x820,End of Day 1,SLS,90,B,NaN,NaN,NaN,Pass,End of Day 1,Pass,NaN,Pass,NaN,Pass,schedule_B,schedule_B,27,13,5,feedback_r,Zone7,timelimit_screen,2005,NaN,NaN,,NaN,0,1,0,NaN,NaN,1,NaN,NaN,trial_right,blueBox.png,blueBox.png,greenBox.png,al2_uncon.png,47,26,NaN,NaN,0.85,0.15,1,0,0,1,Stable,Stable,2.487,1.697,1.13,1.286,inexpert
133,1671139106039,15/12/2022 21:18:26,1671139106009,0,15/12/2022 21:18:26,109680,37,task-rbyw,repeat-u7ds#1->-repeat-l3h2#1,25980797,BLIND,7674790,NaN,complete,NaN,NaN,computer,Desktop or Laptop,Mac OS 10.15.7,Safari 16.1,1440x900,1440x820,End of Day 1,SLS,90,B,NaN,NaN,NaN,Pass,End of Day 1,Pass,NaN,Pass,NaN,Pass,schedule_B,schedule_B,27,13,6,end,Zone1,timelimit_screen,145,NaN,NaN,,NaN,0,1,0,NaN,NaN,1,NaN,NaN,trial_right,blueBox.png,blueBox.png,greenBox.png,al2_uncon.png,47,26,NaN,NaN,0.85,0.15,1,0,0,1,Stable,Stable,2.487,1.697,1.13,1.286,inexpert
134,1671139106729,15/12/2022 21:18:26,1671139106691,0,15/12/2022 21:18:26,109680,37,task-rbyw,repeat-u7ds#1->-repeat-l3h2#1,25980797,BLIND,7674790,NaN,complete,NaN,NaN,computer,Desktop or Laptop,Mac OS 10.15.7,Safari 16.1,1440x900,1440x820,End of Day 1,SLS,90,B,NaN,NaN,NaN,Pass,End of Day 1,Pass,NaN,Pass,NaN,Pass,schedule_B,schedule_B,28,14,1,Screen 1,Zone1,continue_button,663,NaN,NaN,,NaN,0,1,0,NaN,NaN,NaN,NaN,NaN,trial_left,blueBox.png,greenBox.png,blueBox.png,al2_uncon.png,48,27,NaN,NaN,0.85,0.15,1,0,0,0,Stable,Stable,3.824,1.634,0.992,2.244,inexpert
135,1671139107725,15/12/2022 21:18:27,1671139107683,0,15/12/2022 21:18:27,109680,37,task-rbyw,repeat-u7ds#1->-repeat-l3h2#1,25980797,BLIND,7674790,NaN,complete,NaN,NaN,computer,Desktop or Laptop,Mac OS 10.15.7,Safari 16.1,1440x900,1440x820,End of Day 1,SLS,90,B,NaN,NaN,NaN,Pass,End of Day 1,Pass,NaN,Pass,NaN,Pass,schedule_B,schedule_B,28,14,2,individual,Zone4,timelimit_screen,1006,NaN,NaN,,NaN,0,1,0,NaN,NaN,1,NaN,NaN,trial_left,blueBox.png,greenBox.png,blueBox.png,al2_uncon.png,48,27,NaN,NaN,0.85,0.15,1,0,0,0,Stable,Stable,3.824,1.634,0.992,2.244,inexpert
136,1671139108192,15/12/2022 21:18:28,1671139108150,0,15/12/2022 21:18:28,109680,37,task-rbyw,repeat-u7ds#1->-repeat-l3h2#1,25980797,BLIND,7674790,NaN,complete,NaN,NaN,computer,Desktop or Laptop,Mac OS 10.15.7,Safari 16.1,1440x900,1440x820,End of Day 1,SLS,90,B,NaN,NaN,NaN,Pass,End of Day 1,Pass,NaN,Pass,NaN,Pass,schedule_B,schedule_B,28,14,3,offer,bluebox,response_button_image,455,NaN,NaN,blueBox.png,1,1,0,0,NaN,NaN,NaN,NaN,NaN,trial_left,blueBox.png,greenBox.png,blueBox.png,al2_uncon.png,48,27,NaN,NaN,0.85,0.15,1,0,0,0,Stable,Stable,3.824,1.634,0.992,2.244,inexpert
137,1671139110188,15/12/2022 21:18:30,1671139110146,0,15/12/2022 21:18:30,109680,37,task-rbyw,repeat-u7ds#1->-repeat-l3h2#1,25980797,BLIND,7674790,NaN,complete,NaN,NaN,computer,Desktop or Laptop,Mac OS 10.15.7,Safari 16.1,1440x900,1440x820,End of Day 1,SLS,90,B,NaN,NaN,NaN,Pass,End of Day 1,Pass,NaN,Pass,NaN,Pass,schedule_B,schedule_B,28,14,5,feedback_r,Zone7,timelimit_screen,2002,NaN,NaN,,NaN,0,1,0,NaN,NaN,1,NaN,NaN,trial_left,blueBox.png,greenBox.png,blueBox.png,al2_uncon.png,48,27,NaN,NaN,0.85,0.15,1,0,0,0,Stable,Stable,3.824,1.634,0.992,2.244,inexpert
138,1671139110352,15/12/2022 21:18:30,1671139110302,0,15/12/2022 21:18:30,109680,37,task-rbyw,repeat-u7ds#1->-repeat-l3h2#1,25980797,BLIND,7674790,NaN,complete,NaN,NaN,computer,Desktop or Laptop,Mac OS 10.15.7,Safari 16.1,1440x900,1440x820,End of Day 1,SLS,90,B,NaN,NaN,NaN,Pass,End of Day 1,Pass,NaN,Pass,NaN,Pass,schedule_B,schedule_B,28,14,6,end,Zone1,timelimit_screen,156,NaN,NaN,,NaN,0,1,0,NaN,NaN,1,NaN,NaN,trial_left,blueBox.png,greenBox.png,blueBox.png,al2_uncon.png,48,27,NaN,NaN,0.85,0.15,1,0,0,0,Stable,Stable,3.824,1.634,0.992,2.244,inexpert
139,1671139111187,15/12/2022 21:18:31,1671139111145,0,15/12/2022 21:18:31,109680,37,task-rbyw,repeat-u7ds#1->-repeat-l3h2#1,25980797,BLIND,7674790,NaN,complete,NaN,NaN,computer,Desktop or Laptop,Mac OS 10.15.7,Safari 16.1,1440x900,1440x820,End of Day 1,SLS,90,B,NaN,NaN,NaN,Pass,End of Day 1,Pass,NaN,Pass,NaN,Pass,schedule_B,schedule_B,29,14,1,Screen 1,Zone1,continue_button,819,NaN,NaN,,NaN,0,1,0,NaN,NaN,NaN,NaN,NaN,trial_right,blueBox.png,blueBox.png,greenBox.png,al2_uncon.png,49,28,NaN,NaN,0.85,0.15,1,0,0,1,Stable,Stable,2.84,1.937,1.723,2.815,inexpert
140,1671139112200,15/12/2022 21:18:32,1671139112144,0,15/12/2022 21:18:32,109680,37,task-rbyw,repeat-u7ds#1->-repeat-l3h2#1,25980797,BLIND,7674790,NaN,complete,NaN,NaN,computer,Desktop or Laptop,Mac OS 10.15.7,Safari 16.1,1440x900,1440x820,End of Day 1,SLS,90,B,NaN,NaN,NaN,Pass,End of Day 1,Pass,NaN,Pass,NaN,Pass,schedule_B,schedule_B,29,14,2,individual,Zone4,timelimit_screen,1001,NaN,NaN,,NaN,0,1,0,NaN,NaN,1,NaN,NaN,trial_right,blueBox.png,blueBox.png,greenBox.png,al2_uncon.png,49,28,NaN,NaN,0.85,0.15,1,0,0,1,Stable,Stable,2.84,1.937,1.723,2.815,inexpert
141,1671139112363,15/12/2022 21:18:32,1671139112325,0,15/12/2022 21:18:32,109680,37,task-rbyw,repeat-u7ds#1->-repeat-l3h2#1,25980797,BLIND,7674790,NaN,complete,NaN,NaN,computer,Desktop or Laptop,Mac OS 10.15.7,Safari 16.1,1440x900,1440x820,End of Day 1,SLS,90,B,NaN,NaN,NaN,Pass,End of Day 1,Pass,NaN,Pass,NaN,Pass,schedule_B,schedule_B,29,14,3,offer,Zone2,response_button_image,169,NaN,NaN,blueBox.png,1,1,0,0,NaN,NaN,NaN,NaN,NaN,trial_right,blueBox.png,blueBox.png,greenBox.png,al2_uncon.png,49,28,NaN,NaN,0.85,0.15,1,0,0,1,Stable,Stable,2.84,1.937,1.723,2.815,inexpert
142,1671139114350,15/12/2022 21:18:34,1671139114319,0,15/12/2022 21:18:34,109680,37,task-rbyw,repeat-u7ds#1->-repeat-l3h2#1,25980797,BLIND,7674790,NaN,complete,NaN,NaN,computer,Desktop or Laptop,Mac OS 10.15.7,Safari 16.1,1440x900,1440x820,End of Day 1,SLS,90,B,NaN,NaN,NaN,Pass,End of Day 1,Pass,NaN,Pass,NaN,Pass,schedule_B,schedule_B,29,14,4,feedback_l,Zone7,timelimit_screen,2006,NaN,NaN,,NaN,0,1,0,NaN,NaN,1,NaN,NaN,trial_right,blueBox.png,blueBox.png,greenBox.png,al2_uncon.png,49,28,NaN,NaN,0.85,0.15,1,0,0,1,Stable,Stable,2.84,1.937,1.723,2.815,inexpert
143,1671139114510,15/12/2022 21:18:34,1671139114474,0,15/12/2022 21:18:34,109680,37,task-rbyw,repeat-u7ds#1->-repeat-l3h2#1,25980797,BLIND,7674790,NaN,complete,NaN,NaN,computer,Desktop or Laptop,Mac OS 10.15.7,Safari 16.1,1440x900,1440x820,End of Day 1,SLS,90,B,NaN,NaN,NaN,Pass,End of Day 1,Pass,NaN,Pass,NaN,Pass,schedule_B,schedule_B,29,14,6,end,Zone1,timelimit_screen,155,NaN,NaN,,NaN,0,1,0,NaN,NaN,1,NaN,NaN,trial_right,blueBox.png,blueBox.png,greenBox.png,al2_uncon.png,49,28,NaN,NaN,0.85,0.15,1,0,0,1,Stable,Stable,2.84,1.937,1.723,2.815,inexpert
144,1671139115261,15/12/2022 21:18:35,1671139115179,0,15/12/2022 21:18:35,109680,37,task-rbyw,repeat-u7ds#1->-repeat-l3h2#1,25980797,BLIND,7674790,NaN,complete,NaN,NaN,computer,Desktop or Laptop,Mac OS 10.15.7,Safari 16.1,1440x900,1440x820,End of Day 1,SLS,90,B,NaN,NaN,NaN,Pass,End of Day 1,Pass,NaN,Pass,NaN,Pass,schedule_B,schedule_B,30,15,1,Screen 1,Zone1,continue_button,683,NaN,NaN,,NaN,0,1,0,NaN,NaN,NaN,NaN,NaN,trial_right,blueBox.png,blueBox.png,greenBox.png,al2_uncon.png,50,29,NaN,NaN,0.85,0.15,1,0,0,1,Stable,Stable,2.941,1.71,0.664,1.336,inexpert
145,1671139116208,15/12/2022 21:18:36,1671139116155,0,15/12/2022 21:18:36,109680,37,task-rbyw,repeat-u7ds#1->-repeat-l3h2#1,25980797,BLIND,7674790,NaN,complete,NaN,NaN,computer,Desktop or Laptop,Mac OS 10.15.7,Safari 16.1,1440x900,1440x820,End of Day 1,SLS,90,B,NaN,NaN,NaN,Pass,End of Day 1,Pass,NaN,Pass,NaN,Pass,schedule_B,schedule_B,30,15,2,individual,Zone4,timelimit_screen,992,NaN,NaN,,NaN,0,1,0,NaN,NaN,1,NaN,NaN,trial_right,blueBox.png,blueBox.png,greenBox.png,al2_uncon.png,50,29,NaN,NaN,0.85,0.15,1,0,0,1,Stable,Stable,2.941,1.71,0.664,1.336,inexpert
146,1671139116977,15/12/2022 21:18:36,1671139116834,0,15/12/2022 21:18:36,109680,37,task-rbyw,repeat-u7ds#1->-repeat-l3h2#1,25980797,BLIND,7674790,NaN,complete,NaN,NaN,computer,Desktop or Laptop,Mac OS 10.15.7,Safari 16.1,1440x900,1440x820,End of Day 1,SLS,90,B,NaN,NaN,NaN,Pass,End of Day 1,Pass,NaN,Pass,NaN,Pass,schedule_B,schedule_B,30,15,3,offer,Zone2,response_button_image,667,NaN,NaN,blueBox.png,1,1,0,0,NaN,NaN,NaN,NaN,NaN,trial_right,blueBox.png,blueBox.png,greenBox.png,al2_uncon.png,50,29,NaN,NaN,0.85,0.15,1,0,0,1,Stable,Stable,2.941,1.71,0.664,1.336,inexpert
147,1671139119064,15/12/2022 21:18:39,1671139118836,0,15/12/2022 21:18:38,109680,37,task-rbyw,repeat-u7ds#1->-repeat-l3h2#1,25980797,BLIND,7674790,NaN,complete,NaN,NaN,computer,Desktop or Laptop,Mac OS 10.15.7,Safari 16.1,1440x900,1440x820,End of Day 1,SLS,90,B,NaN,NaN,NaN,Pass,End of Day 1,Pass,NaN,Pass,NaN,Pass,schedule_B,schedule_B,30,15,4,feedback_l,Zone7,timelimit_screen,2005,NaN,NaN,,NaN,0,1,0,NaN,NaN,1,NaN,NaN,trial_right,blueBox.png,blueBox.png,greenBox.png,al2_uncon.png,50,29,NaN,NaN,0.85,0.15,1,0,0,1,Stable,Stable,2.941,1.71,0.664,1.336,inexpert
148,1671139119130,15/12/2022 21:18:39,1671139118987,0,15/12/2022 21:18:38,109680,37,task-rbyw,repeat-u7ds#1->-repeat-l3h2#1,25980797,BLIND,7674790,NaN,complete,NaN,NaN,computer,Desktop or Laptop,Mac OS 10.15.7,Safari 16.1,1440x900,1440x820,End of Day 1,SLS,90,B,NaN,NaN,NaN,Pass,End of Day 1,Pass,NaN,Pass,NaN,Pass,schedule_B,schedule_B,30,15,6,end,Zone1,timelimit_screen,151,NaN,NaN,,NaN,0,1,0,NaN,NaN,1,NaN,NaN,trial_right,blueBox.png,blueBox.png,greenBox.png,al2_uncon.png,50,29,NaN,NaN,0.85,0.15,1,0,0,1,Stable,Stable,2.941,1.71,0.664,1.336,inexpert
149,1671139119629,15/12/2022 21:18:39,1671139119592,0,15/12/2022 21:18:39,109680,37,task-rbyw,repeat-u7ds#1->-repeat-l3h2#1,25980797,BLIND,7674790,NaN,complete,NaN,NaN,computer,Desktop or Laptop,Mac OS 10.15.7,Safari 16.1,1440x900,1440x820,End of Day 1,SLS,90,B,NaN,NaN,NaN,Pass,End of Day 1,Pass,NaN,Pass,NaN,Pass,schedule_B,schedule_B,31,15,1,Screen 1,Zone1,continue_button,585,NaN,NaN,,NaN,0,1,0,NaN,NaN,NaN,NaN,NaN,trial_left,blueBox.png,greenBox.png,blueBox.png,al2_uncon.png,61,30,NaN,NaN,0.85,0.15,1,0,0,0,Stable,Stable,2.79,1.735,0.601,2.345,inexpert
150,1671139120641,15/12/2022 21:18:40,1671139120592,0,15/12/2022 21:18:40,109680,37,task-rbyw,repeat-u7ds#1->-repeat-l3h2#1,25980797,BLIND,7674790,NaN,complete,NaN,NaN,computer,Desktop or Laptop,Mac OS 10.15.7,Safari 16.1,1440x900,1440x820,End of Day 1,SLS,90,B,NaN,NaN,NaN,Pass,End of Day 1,Pass,NaN,Pass,NaN,Pass,schedule_B,schedule_B,31,15,2,individual,Zone4,timelimit_screen,1004,NaN,NaN,,NaN,0,1,0,NaN,NaN,1,NaN,NaN,trial_left,blueBox.png,greenBox.png,blueBox.png,al2_uncon.png,61,30,NaN,NaN,0.85,0.15,1,0,0,0,Stable,Stable,2.79,1.735,0.601,2.345,inexpert
151,1671139121457,15/12/2022 21:18:41,1671139121421,0,15/12/2022 21:18:41,109680,37,task-rbyw,repeat-u7ds#1->-repeat-l3h2#1,25980797,BLIND,7674790,NaN,complete,NaN,NaN,computer,Desktop or Laptop,Mac OS 10.15.7,Safari 16.1,1440x900,1440x820,End of Day 1,SLS,90,B,NaN,NaN,NaN,Pass,End of Day 1,Pass,NaN,Pass,NaN,Pass,schedule_B,schedule_B,31,15,3,offer,bluebox,response_button_image,819,NaN,NaN,blueBox.png,1,1,0,0,NaN,NaN,NaN,NaN,NaN,trial_left,blueBox.png,greenBox.png,blueBox.png,al2_uncon.png,61,30,NaN,NaN,0.85,0.15,1,0,0,0,Stable,Stable,2.79,1.735,0.601,2.345,inexpert
152,1671139123447,15/12/2022 21:18:43,1671139123410,0,15/12/2022 21:18:43,109680,37,task-rbyw,repeat-u7ds#1->-repeat-l3h2#1,25980797,BLIND,7674790,NaN,complete,NaN,NaN,computer,Desktop or Laptop,Mac OS 10.15.7,Safari 16.1,1440x900,1440x820,End of Day 1,SLS,90,B,NaN,NaN,NaN,Pass,End of Day 1,Pass,NaN,Pass,NaN,Pass,schedule_B,schedule_B,31,15,5,feedback_r,Zone7,timelimit_screen,2002,NaN,NaN,,NaN,0,1,0,NaN,NaN,1,NaN,NaN,trial_left,blueBox.png,greenBox.png,blueBox.png,al2_uncon.png,61,30,NaN,NaN,0.85,0.15,1,0,0,0,Stable,Stable,2.79,1.735,0.601,2.345,inexpert
153,1671139123666,15/12/2022 21:18:43,1671139123566,0,15/12/2022 21:18:43,109680,37,task-rbyw,repeat-u7ds#1->-repeat-l3h2#1,25980797,BLIND,7674790,NaN,complete,NaN,NaN,computer,Desktop or Laptop,Mac OS 10.15.7,Safari 16.1,1440x900,1440x820,End of Day 1,SLS,90,B,NaN,NaN,NaN,Pass,End of Day 1,Pass,NaN,Pass,NaN,Pass,schedule_B,schedule_B,31,15,6,end,Zone1,timelimit_screen,156,NaN,NaN,,NaN,0,1,0,NaN,NaN,1,NaN,NaN,trial_left,blueBox.png,greenBox.png,blueBox.png,al2_uncon.png,61,30,NaN,NaN,0.85,0.15,1,0,0,0,Stable,Stable,2.79,1.735,0.601,2.345,inexpert
154,1671139125420,15/12/2022 21:18:45,1671139125383,0,15/12/2022 21:18:45,109680,37,task-rbyw,repeat-u7ds#1->-repeat-l3h2#1,25980797,BLIND,7674790,NaN,complete,NaN,NaN,computer,Desktop or Laptop,Mac OS 10.15.7,Safari 16.1,1440x900,1440x820,End of Day 1,SLS,90,B,NaN,NaN,NaN,Pass,End of Day 1,Pass,NaN,Pass,NaN,Pass,schedule_B,schedule_B,32,16,1,Screen 1,Zone1,continue_button,1798,NaN,NaN,,NaN,0,1,0,NaN,NaN,NaN,NaN,NaN,trial_right,blueBox.png,greenBox.png,blueBox.png,al2_uncon.png,62,31,NaN,NaN,0.85,0.85,1,1,1,0,Volatile,Volatile,2.538,1.672,1.143,1.555,inexpert
155,1671139126414,15/12/2022 21:18:46,1671139126370,0,15/12/2022 21:18:46,109680,37,task-rbyw,repeat-u7ds#1->-repeat-l3h2#1,25980797,BLIND,7674790,NaN,complete,NaN,NaN,computer,Desktop or Laptop,Mac OS 10.15.7,Safari 16.1,1440x900,1440x820,End of Day 1,SLS,90,B,NaN,NaN,NaN,Pass,End of Day 1,Pass,NaN,Pass,NaN,Pass,schedule_B,schedule_B,32,16,2,individual,Zone4,timelimit_screen,1004,NaN,NaN,,NaN,0,1,0,NaN,NaN,1,NaN,NaN,trial_right,blueBox.png,greenBox.png,blueBox.png,al2_uncon.png,62,31,NaN,NaN,0.85,0.85,1,1,1,0,Volatile,Volatile,2.538,1.672,1.143,1.555,inexpert
156,1671139127037,15/12/2022 21:18:47,1671139127007,0,15/12/2022 21:18:47,109680,37,task-rbyw,repeat-u7ds#1->-repeat-l3h2#1,25980797,BLIND,7674790,NaN,complete,NaN,NaN,computer,Desktop or Laptop,Mac OS 10.15.7,Safari 16.1,1440x900,1440x820,End of Day 1,SLS,90,B,NaN,NaN,NaN,Pass,End of Day 1,Pass,NaN,Pass,NaN,Pass,schedule_B,schedule_B,32,16,3,offer,Zone3,response_button_image,625,NaN,NaN,blueBox.png,1,1,0,0,NaN,NaN,NaN,NaN,NaN,trial_right,blueBox.png,greenBox.png,blueBox.png,al2_uncon.png,62,31,NaN,NaN,0.85,0.85,1,1,1,0,Volatile,Volatile,2.538,1.672,1.143,1.555,inexpert
157,1671139129036,15/12/2022 21:18:49,1671139128996,0,15/12/2022 21:18:48,109680,37,task-rbyw,repeat-u7ds#1->-repeat-l3h2#1,25980797,BLIND,7674790,NaN,complete,NaN,NaN,computer,Desktop or Laptop,Mac OS 10.15.7,Safari 16.1,1440x900,1440x820,End of Day 1,SLS,90,B,NaN,NaN,NaN,Pass,End of Day 1,Pass,NaN,Pass,NaN,Pass,schedule_B,schedule_B,32,16,5,feedback_r,Zone7,timelimit_screen,1998,NaN,NaN,,NaN,0,1,0,NaN,NaN,1,NaN,NaN,trial_right,blueBox.png,greenBox.png,blueBox.png,al2_uncon.png,62,31,NaN,NaN,0.85,0.85,1,1,1,0,Volatile,Volatile,2.538,1.672,1.143,1.555,inexpert
158,1671139129180,15/12/2022 21:18:49,1671139129151,0,15/12/2022 21:18:49,109680,37,task-rbyw,repeat-u7ds#1->-repeat-l3h2#1,25980797,BLIND,7674790,NaN,complete,NaN,NaN,computer,Desktop or Laptop,Mac OS 10.15.7,Safari 16.1,1440x900,1440x820,End of Day 1,SLS,90,B,NaN,NaN,NaN,Pass,End of Day 1,Pass,NaN,Pass,NaN,Pass,schedule_B,schedule_B,32,16,6,end,Zone1,timelimit_screen,155,NaN,NaN,,NaN,0,1,0,NaN,NaN,1,NaN,NaN,trial_right,blueBox.png,greenBox.png,blueBox.png,al2_uncon.png,62,31,NaN,NaN,0.85,0.85,1,1,1,0,Volatile,Volatile,2.538,1.672,1.143,1.555,inexpert
159,1671139130237,15/12/2022 21:18:50,1671139130202,0,15/12/2022 21:18:50,109680,37,task-rbyw,repeat-u7ds#1->-repeat-l3h2#1,25980797,BLIND,7674790,NaN,complete,NaN,NaN,computer,Desktop or Laptop,Mac OS 10.15.7,Safari 16.1,1440x900,1440x820,End of Day 1,SLS,90,B,NaN,NaN,NaN,Pass,End of Day 1,Pass,NaN,Pass,NaN,Pass,schedule_B,schedule_B,33,16,1,Screen 1,Zone1,continue_button,1031,NaN,NaN,,NaN,0,1,0,NaN,NaN,NaN,NaN,NaN,trial_left,blueBox.png,greenBox.png,blueBox.png,al2_uncon.png,63,32,NaN,NaN,0.85,0.85,1,0,0,0,Volatile,Volatile,2.739,1.13,0.815,1.387,inexpert
160,1671139131349,15/12/2022 21:18:51,1671139131203,0,15/12/2022 21:18:51,109680,37,task-rbyw,repeat-u7ds#1->-repeat-l3h2#1,25980797,BLIND,7674790,NaN,complete,NaN,NaN,computer,Desktop or Laptop,Mac OS 10.15.7,Safari 16.1,1440x900,1440x820,End of Day 1,SLS,90,B,NaN,NaN,NaN,Pass,End of Day 1,Pass,NaN,Pass,NaN,Pass,schedule_B,schedule_B,33,16,2,individual,Zone4,timelimit_screen,1004,NaN,NaN,,NaN,0,1,0,NaN,NaN,1,NaN,NaN,trial_left,blueBox.png,greenBox.png,blueBox.png,al2_uncon.png,63,32,NaN,NaN,0.85,0.85,1,0,0,0,Volatile,Volatile,2.739,1.13,0.815,1.387,inexpert
161,1671139131828,15/12/2022 21:18:51,1671139131785,0,15/12/2022 21:18:51,109680,37,task-rbyw,repeat-u7ds#1->-repeat-l3h2#1,25980797,BLIND,7674790,NaN,complete,NaN,NaN,computer,Desktop or Laptop,Mac OS 10.15.7,Safari 16.1,1440x900,1440x820,End of Day 1,SLS,90,B,NaN,NaN,NaN,Pass,End of Day 1,Pass,NaN,Pass,NaN,Pass,schedule_B,schedule_B,33,16,3,offer,bluebox,response_button_image,572.000000000029,NaN,NaN,blueBox.png,1,1,0,0,NaN,NaN,NaN,NaN,NaN,trial_left,blueBox.png,greenBox.png,blueBox.png,al2_uncon.png,63,32,NaN,NaN,0.85,0.85,1,0,0,0,Volatile,Volatile,2.739,1.13,0.815,1.387,inexpert
162,1671139133825,15/12/2022 21:18:53,1671139133788,0,15/12/2022 21:18:53,109680,37,task-rbyw,repeat-u7ds#1->-repeat-l3h2#1,25980797,BLIND,7674790,NaN,complete,NaN,NaN,computer,Desktop or Laptop,Mac OS 10.15.7,Safari 16.1,1440x900,1440x820,End of Day 1,SLS,90,B,NaN,NaN,NaN,Pass,End of Day 1,Pass,NaN,Pass,NaN,Pass,schedule_B,schedule_B,33,16,5,feedback_r,Zone7,timelimit_screen,2005,NaN,NaN,,NaN,0,1,0,NaN,NaN,1,NaN,NaN,trial_left,blueBox.png,greenBox.png,blueBox.png,al2_uncon.png,63,32,NaN,NaN,0.85,0.85,1,0,0,0,Volatile,Volatile,2.739,1.13,0.815,1.387,inexpert
163,1671139133974,15/12/2022 21:18:53,1671139133936,0,15/12/2022 21:18:53,109680,37,task-rbyw,repeat-u7ds#1->-repeat-l3h2#1,25980797,BLIND,7674790,NaN,complete,NaN,NaN,computer,Desktop or Laptop,Mac OS 10.15.7,Safari 16.1,1440x900,1440x820,End of Day 1,SLS,90,B,NaN,NaN,NaN,Pass,End of Day 1,Pass,NaN,Pass,NaN,Pass,schedule_B,schedule_B,33,16,6,end,Zone1,timelimit_screen,148,NaN,NaN,,NaN,0,1,0,NaN,NaN,1,NaN,NaN,trial_left,blueBox.png,greenBox.png,blueBox.png,al2_uncon.png,63,32,NaN,NaN,0.85,0.85,1,0,0,0,Volatile,Volatile,2.739,1.13,0.815,1.387,inexpert
164,1671139134867,15/12/2022 21:18:54,1671139134820,0,15/12/2022 21:18:54,109680,37,task-rbyw,repeat-u7ds#1->-repeat-l3h2#1,25980797,BLIND,7674790,NaN,complete,NaN,NaN,computer,Desktop or Laptop,Mac OS 10.15.7,Safari 16.1,1440x900,1440x820,End of Day 1,SLS,90,B,NaN,NaN,NaN,Pass,End of Day 1,Pass,NaN,Pass,NaN,Pass,schedule_B,schedule_B,34,17,1,Screen 1,Zone1,continue_button,863,NaN,NaN,,NaN,0,1,0,NaN,NaN,NaN,NaN,NaN,trial_left,blueBox.png,blueBox.png,greenBox.png,al2_uncon.png,64,33,NaN,NaN,0.85,0.85,1,1,1,1,Volatile,Volatile,3.672,0.828,0.513,2.059,inexpert
165,1671139135868,15/12/2022 21:18:55,1671139135823,0,15/12/2022 21:18:55,109680,37,task-rbyw,repeat-u7ds#1->-repeat-l3h2#1,25980797,BLIND,7674790,NaN,complete,NaN,NaN,computer,Desktop or Laptop,Mac OS 10.15.7,Safari 16.1,1440x900,1440x820,End of Day 1,SLS,90,B,NaN,NaN,NaN,Pass,End of Day 1,Pass,NaN,Pass,NaN,Pass,schedule_B,schedule_B,34,17,2,individual,Zone4,timelimit_screen,1005,NaN,NaN,,NaN,0,1,0,NaN,NaN,1,NaN,NaN,trial_left,blueBox.png,blueBox.png,greenBox.png,al2_uncon.png,64,33,NaN,NaN,0.85,0.85,1,1,1,1,Volatile,Volatile,3.672,0.828,0.513,2.059,inexpert
166,1671139136367,15/12/2022 21:18:56,1671139136326,0,15/12/2022 21:18:56,109680,37,task-rbyw,repeat-u7ds#1->-repeat-l3h2#1,25980797,BLIND,7674790,NaN,complete,NaN,NaN,computer,Desktop or Laptop,Mac OS 10.15.7,Safari 16.1,1440x900,1440x820,End of Day 1,SLS,90,B,NaN,NaN,NaN,Pass,End of Day 1,Pass,NaN,Pass,NaN,Pass,schedule_B,schedule_B,34,17,3,offer,Zone2,response_button_image,492,NaN,NaN,blueBox.png,1,1,0,0,NaN,NaN,NaN,NaN,NaN,trial_left,blueBox.png,blueBox.png,greenBox.png,al2_uncon.png,64,33,NaN,NaN,0.85,0.85,1,1,1,1,Volatile,Volatile,3.672,0.828,0.513,2.059,inexpert
167,1671139138374,15/12/2022 21:18:58,1671139138331,0,15/12/2022 21:18:58,109680,37,task-rbyw,repeat-u7ds#1->-repeat-l3h2#1,25980797,BLIND,7674790,NaN,complete,NaN,NaN,computer,Desktop or Laptop,Mac OS 10.15.7,Safari 16.1,1440x900,1440x820,End of Day 1,SLS,90,B,NaN,NaN,NaN,Pass,End of Day 1,Pass,NaN,Pass,NaN,Pass,schedule_B,schedule_B,34,17,4,feedback_l,Zone7,timelimit_screen,2006,NaN,NaN,,NaN,0,1,0,NaN,NaN,1,NaN,NaN,trial_left,blueBox.png,blueBox.png,greenBox.png,al2_uncon.png,64,33,NaN,NaN,0.85,0.85,1,1,1,1,Volatile,Volatile,3.672,0.828,0.513,2.059,inexpert
168,1671139138522,15/12/2022 21:18:58,1671139138481,0,15/12/2022 21:18:58,109680,37,task-rbyw,repeat-u7ds#1->-repeat-l3h2#1,25980797,BLIND,7674790,NaN,complete,NaN,NaN,computer,Desktop or Laptop,Mac OS 10.15.7,Safari 16.1,1440x900,1440x820,End of Day 1,SLS,90,B,NaN,NaN,NaN,Pass,End of Day 1,Pass,NaN,Pass,NaN,Pass,schedule_B,schedule_B,34,17,6,end,Zone1,timelimit_screen,150,NaN,NaN,,NaN,0,1,0,NaN,NaN,1,NaN,NaN,trial_left,blueBox.png,blueBox.png,greenBox.png,al2_uncon.png,64,33,NaN,NaN,0.85,0.85,1,1,1,1,Volatile,Volatile,3.672,0.828,0.513,2.059,inexpert
169,1671139139699,15/12/2022 21:18:59,1671139139655,0,15/12/2022 21:18:59,109680,37,task-rbyw,repeat-u7ds#1->-repeat-l3h2#1,25980797,BLIND,7674790,NaN,complete,NaN,NaN,computer,Desktop or Laptop,Mac OS 10.15.7,Safari 16.1,1440x900,1440x820,End of Day 1,SLS,90,B,NaN,NaN,NaN,Pass,End of Day 1,Pass,NaN,Pass,NaN,Pass,schedule_B,schedule_B,35,18,1,Screen 1,Zone1,continue_button,1153.00000000003,NaN,NaN,,NaN,0,1,0,NaN,NaN,NaN,NaN,NaN,trial_left,blueBox.png,blueBox.png,greenBox.png,al2_uncon.png,65,34,NaN,NaN,0.85,0.85,1,1,1,1,Volatile,Volatile,2.261,0.866,1.811,2.849,inexpert
170,1671139140701,15/12/2022 21:19:00,1671139140649,0,15/12/2022 21:19:00,109680,37,task-rbyw,repeat-u7ds#1->-repeat-l3h2#1,25980797,BLIND,7674790,NaN,complete,NaN,NaN,computer,Desktop or Laptop,Mac OS 10.15.7,Safari 16.1,1440x900,1440x820,End of Day 1,SLS,90,B,NaN,NaN,NaN,Pass,End of Day 1,Pass,NaN,Pass,NaN,Pass,schedule_B,schedule_B,35,18,2,individual,Zone4,timelimit_screen,1005,NaN,NaN,,NaN,0,1,0,NaN,NaN,1,NaN,NaN,trial_left,blueBox.png,blueBox.png,greenBox.png,al2_uncon.png,65,34,NaN,NaN,0.85,0.85,1,1,1,1,Volatile,Volatile,2.261,0.866,1.811,2.849,inexpert
171,1671139141373,15/12/2022 21:19:01,1671139141343,0,15/12/2022 21:19:01,109680,37,task-rbyw,repeat-u7ds#1->-repeat-l3h2#1,25980797,BLIND,7674790,NaN,complete,NaN,NaN,computer,Desktop or Laptop,Mac OS 10.15.7,Safari 16.1,1440x900,1440x820,End of Day 1,SLS,90,B,NaN,NaN,NaN,Pass,End of Day 1,Pass,NaN,Pass,NaN,Pass,schedule_B,schedule_B,35,18,3,offer,Zone2,response_button_image,683,NaN,NaN,blueBox.png,1,1,0,0,NaN,NaN,NaN,NaN,NaN,trial_left,blueBox.png,blueBox.png,greenBox.png,al2_uncon.png,65,34,NaN,NaN,0.85,0.85,1,1,1,1,Volatile,Volatile,2.261,0.866,1.811,2.849,inexpert
172,1671139143378,15/12/2022 21:19:03,1671139143336,0,15/12/2022 21:19:03,109680,37,task-rbyw,repeat-u7ds#1->-repeat-l3h2#1,25980797,BLIND,7674790,NaN,complete,NaN,NaN,computer,Desktop or Laptop,Mac OS 10.15.7,Safari 16.1,1440x900,1440x820,End of Day 1,SLS,90,B,NaN,NaN,NaN,Pass,End of Day 1,Pass,NaN,Pass,NaN,Pass,schedule_B,schedule_B,35,18,4,feedback_l,Zone7,timelimit_screen,2000,NaN,NaN,,NaN,0,1,0,NaN,NaN,1,NaN,NaN,trial_left,blueBox.png,blueBox.png,greenBox.png,al2_uncon.png,65,34,NaN,NaN,0.85,0.85,1,1,1,1,Volatile,Volatile,2.261,0.866,1.811,2.849,inexpert
173,1671139143598,15/12/2022 21:19:03,1671139143489,0,15/12/2022 21:19:03,109680,37,task-rbyw,repeat-u7ds#1->-repeat-l3h2#1,25980797,BLIND,7674790,NaN,complete,NaN,NaN,computer,Desktop or Laptop,Mac OS 10.15.7,Safari 16.1,1440x900,1440x820,End of Day 1,SLS,90,B,NaN,NaN,NaN,Pass,End of Day 1,Pass,NaN,Pass,NaN,Pass,schedule_B,schedule_B,35,18,6,end,Zone1,timelimit_screen,154,NaN,NaN,,NaN,0,1,0,NaN,NaN,1,NaN,NaN,trial_left,blueBox.png,blueBox.png,greenBox.png,al2_uncon.png,65,34,NaN,NaN,0.85,0.85,1,1,1,1,Volatile,Volatile,2.261,0.866,1.811,2.849,inexpert
174,1671139144411,15/12/2022 21:19:04,1671139144370,0,15/12/2022 21:19:04,109680,37,task-rbyw,repeat-u7ds#1->-repeat-l3h2#1,25980797,BLIND,7674790,NaN,complete,NaN,NaN,computer,Desktop or Laptop,Mac OS 10.15.7,Safari 16.1,1440x900,1440x820,End of Day 1,SLS,90,B,NaN,NaN,NaN,Pass,End of Day 1,Pass,NaN,Pass,NaN,Pass,schedule_B,schedule_B,36,19,1,Screen 1,Zone1,continue_button,861,NaN,NaN,,NaN,0,1,0,NaN,NaN,NaN,NaN,NaN,trial_left,blueBox.png,blueBox.png,greenBox.png,al2_uncon.png,66,35,NaN,NaN,0.85,0.85,1,1,1,1,Volatile,Volatile,1.807,1.029,1.634,2.092,inexpert
175,1671139145416,15/12/2022 21:19:05,1671139145372,0,15/12/2022 21:19:05,109680,37,task-rbyw,repeat-u7ds#1->-repeat-l3h2#1,25980797,BLIND,7674790,NaN,complete,NaN,NaN,computer,Desktop or Laptop,Mac OS 10.15.7,Safari 16.1,1440x900,1440x820,End of Day 1,SLS,90,B,NaN,NaN,NaN,Pass,End of Day 1,Pass,NaN,Pass,NaN,Pass,schedule_B,schedule_B,36,19,2,individual,Zone4,timelimit_screen,1005,NaN,NaN,,NaN,0,1,0,NaN,NaN,1,NaN,NaN,trial_left,blueBox.png,blueBox.png,greenBox.png,al2_uncon.png,66,35,NaN,NaN,0.85,0.85,1,1,1,1,Volatile,Volatile,1.807,1.029,1.634,2.092,inexpert
176,1671139145858,15/12/2022 21:19:05,1671139145821,0,15/12/2022 21:19:05,109680,37,task-rbyw,repeat-u7ds#1->-repeat-l3h2#1,25980797,BLIND,7674790,NaN,complete,NaN,NaN,computer,Desktop or Laptop,Mac OS 10.15.7,Safari 16.1,1440x900,1440x820,End of Day 1,SLS,90,B,NaN,NaN,NaN,Pass,End of Day 1,Pass,NaN,Pass,NaN,Pass,schedule_B,schedule_B,36,19,3,offer,Zone2,response_button_image,436,NaN,NaN,blueBox.png,1,1,0,0,NaN,NaN,NaN,NaN,NaN,trial_left,blueBox.png,blueBox.png,greenBox.png,al2_uncon.png,66,35,NaN,NaN,0.85,0.85,1,1,1,1,Volatile,Volatile,1.807,1.029,1.634,2.092,inexpert
