EventIndex,UTCTimestamp,UTCDate,LocalTimestamp,LocalTimezone,LocalDate,ExperimentID,ExperimentVersion,TreeNodeKey,RepeatKey,ScheduleID,ParticipantPublicID,ParticipantPrivateID,ParticipantStartingGroup,ParticipantStatus,ParticipantCompletionCode,ParticipantExternalSessionID,ParticipantDeviceType,ParticipantDevice,ParticipantOS,ParticipantBrowser,ParticipantMonitorSize,ParticipantViewportSize,Checkpoint,TaskName,TaskVersion,randomiser_6z9f,branch_kxy7,checkpoint_tqwf,branch_rtog,branch_7dgx,checkpoint_mqen,branch_yx2c,branch_3n8o,branch_f1s6,branch_x6l7,branch_21hs,Spreadsheet,SpreadsheetName,SpreadsheetRow,TrialNumber,ScreenNumber,ScreenName,ZoneName,ZoneType,ReactionTime,ReactionOnset,ResponseType,Response,Attempt,Correct,Incorrect,Dishonest,XCoordinate,YCoordinate,TimedOut,randomise_blocks,randomise_trials,display,ANSWER,left_button,right_button,advice,orderno,trialno,ShowProgressBar,image,prob_blue_corr,prob_group_corr,corr_ans,group_corr,group_choice,blue_pos,indiv_vol,soc_vol,ITI_1,ITI_2,ITI_3,ITI_4,condition
1,1671223471802,16/12/2022 20:44:31,1671223473948,0,16/12/2022 20:44:33,109680,37,task-v1fs,repeat-u7ds#1->-repeat-l3h2#1->-repeat-pi7a#1->-repeat-apgu#1,25998812,BLIND,7674790,NaN,complete,NaN,NaN,computer,Desktop or Laptop,Windows 10,Firefox 107.0,1536x864,1536x864,End of Day 1,SLS,90,B,NaN,NaN,NaN,Pass,End of Day 1,Pass,NaN,Pass,NaN,Pass,schedule_A,,NaN,NaN,NaN,,,,NaN,NaN,NaN,,NaN,0,1,0,NaN,NaN,NaN,NaN,NaN,,,,,,NaN,NaN,NaN,NaN,NaN,NaN,NaN,NaN,NaN,NaN,,,NaN,NaN,NaN,NaN,
2,1671223473248,16/12/2022 20:44:33,1671223475452,0,16/12/2022 20:44:35,109680,37,task-v1fs,repeat-u7ds#1->-repeat-l3h2#1->-repeat-pi7a#1->-repeat-apgu#1,25998812,BLIND,7674790,NaN,complete,NaN,NaN,computer,Desktop or Laptop,Windows 10,Firefox 107.0,1536x864,1536x864,End of Day 1,SLS,90,B,NaN,NaN,NaN,Pass,End of Day 1,Pass,NaN,Pass,NaN,Pass,schedule_A,schedule_A,1,1,1,Screen 1,Zone1,continue_button,1351,NaN,NaN,,NaN,0,1,0,NaN,NaN,NaN,NaN,NaN,getReady,,,,,1,NaN,NaN,NaN,NaN,NaN,NaN,NaN,NaN,NaN,,,NaN,NaN,NaN,NaN,
3,1671223474498,16/12/2022 20:44:34,1671223476704,0,16/12/2022 20:44:36,109680,37,task-v1fs,repeat-u7ds#1->-repeat-l3h2#1->-repeat-pi7a#1->-repeat-apgu#1,25998812,BLIND,7674790,NaN,complete,NaN,NaN,computer,Desktop or Laptop,Windows 10,Firefox 107.0,1536x864,1536x864,End of Day 1,SLS,90,B,NaN,NaN,NaN,Pass,End of Day 1,Pass,NaN,Pass,NaN,Pass,schedule_A,schedule_A,1,1,2,Screen 2,Zone1,continue_button,1248,NaN,NaN,,NaN,0,1,0,NaN,NaN,NaN,NaN,NaN,getReady,,,,,1,NaN,NaN,NaN,NaN,NaN,NaN,NaN,NaN,NaN,,,NaN,NaN,NaN,NaN,
4,1671223479769,16/12/2022 20:44:39,1671223481939,0,16/12/2022 20:44:41,109680,37,task-v1fs,repeat-u7ds#1->-repeat-l3h2#1->-repeat-pi7a#1->-repeat-apgu#1,25998812,BLIND,7674790,NaN,complete,NaN,NaN,computer,Desktop or Laptop,Windows 10,Firefox 107.0,1536x864,1536x864,End of Day 1,SLS,90,B,NaN,NaN,NaN,Pass,End of Day 1,Pass,NaN,Pass,NaN,Pass,schedule_A,schedule_A,2,1,1,Screen 1,Zone1,continue_button,5217,NaN,NaN,,NaN,0,1,0,NaN,NaN,NaN,NaN,NaN,trial_right,redBox.png,yellowBox.png,redBox.png,al1_con.png,2,1,NaN,NaN,0.85,0.85,1,1,1,0,Volatile,Stable,3.471,0.525,1.66,2.529,expert
5,1671223480751,16/12/2022 20:44:40,1671223482938,0,16/12/2022 20:44:42,109680,37,task-v1fs,repeat-u7ds#1->-repeat-l3h2#1->-repeat-pi7a#1->-repeat-apgu#1,25998812,BLIND,7674790,NaN,complete,NaN,NaN,computer,Desktop or Laptop,Windows 10,Firefox 107.0,1536x864,1536x864,End of Day 1,SLS,90,B,NaN,NaN,NaN,Pass,End of Day 1,Pass,NaN,Pass,NaN,Pass,schedule_A,schedule_A,2,1,2,individual,Zone4,timelimit_screen,999.900000000001,NaN,NaN,,NaN,0,1,0,NaN,NaN,1,NaN,NaN,trial_right,redBox.png,yellowBox.png,redBox.png,al1_con.png,2,1,NaN,NaN,0.85,0.85,1,1,1,0,Volatile,Stable,3.471,0.525,1.66,2.529,expert
6,1671223481301,16/12/2022 20:44:41,1671223483506,0,16/12/2022 20:44:43,109680,37,task-v1fs,repeat-u7ds#1->-repeat-l3h2#1->-repeat-pi7a#1->-repeat-apgu#1,25998812,BLIND,7674790,NaN,complete,NaN,NaN,computer,Desktop or Laptop,Windows 10,Firefox 107.0,1536x864,1536x864,End of Day 1,SLS,90,B,NaN,NaN,NaN,Pass,End of Day 1,Pass,NaN,Pass,NaN,Pass,schedule_A,schedule_A,2,1,3,offer,Zone3,response_button_image,555,NaN,NaN,redBox.png,1,1,0,0,NaN,NaN,NaN,NaN,NaN,trial_right,redBox.png,yellowBox.png,redBox.png,al1_con.png,2,1,NaN,NaN,0.85,0.85,1,1,1,0,Volatile,Stable,3.471,0.525,1.66,2.529,expert
7,1671223483309,16/12/2022 20:44:43,1671223485502,0,16/12/2022 20:44:45,109680,37,task-v1fs,repeat-u7ds#1->-repeat-l3h2#1->-repeat-pi7a#1->-repeat-apgu#1,25998812,BLIND,7674790,NaN,complete,NaN,NaN,computer,Desktop or Laptop,Windows 10,Firefox 107.0,1536x864,1536x864,End of Day 1,SLS,90,B,NaN,NaN,NaN,Pass,End of Day 1,Pass,NaN,Pass,NaN,Pass,schedule_A,schedule_A,2,1,5,feedback_r,Zone7,timelimit_screen,1999.86,NaN,NaN,,NaN,0,1,0,NaN,NaN,1,NaN,NaN,trial_right,redBox.png,yellowBox.png,redBox.png,al1_con.png,2,1,NaN,NaN,0.85,0.85,1,1,1,0,Volatile,Stable,3.471,0.525,1.66,2.529,expert
8,1671223483444,16/12/2022 20:44:43,1671223485654,0,16/12/2022 20:44:45,109680,37,task-v1fs,repeat-u7ds#1->-repeat-l3h2#1->-repeat-pi7a#1->-repeat-apgu#1,25998812,BLIND,7674790,NaN,complete,NaN,NaN,computer,Desktop or Laptop,Windows 10,Firefox 107.0,1536x864,1536x864,End of Day 1,SLS,90,B,NaN,NaN,NaN,Pass,End of Day 1,Pass,NaN,Pass,NaN,Pass,schedule_A,schedule_A,2,1,6,end,Zone1,timelimit_screen,149.92,NaN,NaN,,NaN,0,1,0,NaN,NaN,1,NaN,NaN,trial_right,redBox.png,yellowBox.png,redBox.png,al1_con.png,2,1,NaN,NaN,0.85,0.85,1,1,1,0,Volatile,Stable,3.471,0.525,1.66,2.529,expert
9,1671223484908,16/12/2022 20:44:44,1671223487120,0,16/12/2022 20:44:47,109680,37,task-v1fs,repeat-u7ds#1->-repeat-l3h2#1->-repeat-pi7a#1->-repeat-apgu#1,25998812,BLIND,7674790,NaN,complete,NaN,NaN,computer,Desktop or Laptop,Windows 10,Firefox 107.0,1536x864,1536x864,End of Day 1,SLS,90,B,NaN,NaN,NaN,Pass,End of Day 1,Pass,NaN,Pass,NaN,Pass,schedule_A,schedule_A,3,1,1,Screen 1,Zone1,continue_button,1444,NaN,NaN,,NaN,0,1,0,NaN,NaN,NaN,NaN,NaN,trial_left,redBox.png,redBox.png,yellowBox.png,al1_con.png,3,2,NaN,NaN,0.85,0.85,1,1,1,1,Volatile,Stable,1.782,1.168,1.168,2.462,expert
10,1671223485922,16/12/2022 20:44:45,1671223488120,0,16/12/2022 20:44:48,109680,37,task-v1fs,repeat-u7ds#1->-repeat-l3h2#1->-repeat-pi7a#1->-repeat-apgu#1,25998812,BLIND,7674790,NaN,complete,NaN,NaN,computer,Desktop or Laptop,Windows 10,Firefox 107.0,1536x864,1536x864,End of Day 1,SLS,90,B,NaN,NaN,NaN,Pass,End of Day 1,Pass,NaN,Pass,NaN,Pass,schedule_A,schedule_A,3,1,2,individual,Zone4,timelimit_screen,999.860000000001,NaN,NaN,,NaN,0,1,0,NaN,NaN,1,NaN,NaN,trial_left,redBox.png,redBox.png,yellowBox.png,al1_con.png,3,2,NaN,NaN,0.85,0.85,1,1,1,1,Volatile,Stable,1.782,1.168,1.168,2.462,expert
11,1671223486527,16/12/2022 20:44:46,1671223488734,0,16/12/2022 20:44:48,109680,37,task-v1fs,repeat-u7ds#1->-repeat-l3h2#1->-repeat-pi7a#1->-repeat-apgu#1,25998812,BLIND,7674790,NaN,complete,NaN,NaN,computer,Desktop or Laptop,Windows 10,Firefox 107.0,1536x864,1536x864,End of Day 1,SLS,90,B,NaN,NaN,NaN,Pass,End of Day 1,Pass,NaN,Pass,NaN,Pass,schedule_A,schedule_A,3,1,3,offer,Zone2,response_button_image,604,NaN,NaN,redBox.png,1,1,0,0,NaN,NaN,NaN,NaN,NaN,trial_left,redBox.png,redBox.png,yellowBox.png,al1_con.png,3,2,NaN,NaN,0.85,0.85,1,1,1,1,Volatile,Stable,1.782,1.168,1.168,2.462,expert
12,1671223488517,16/12/2022 20:44:48,1671223490720,0,16/12/2022 20:44:50,109680,37,task-v1fs,repeat-u7ds#1->-repeat-l3h2#1->-repeat-pi7a#1->-repeat-apgu#1,25998812,BLIND,7674790,NaN,complete,NaN,NaN,computer,Desktop or Laptop,Windows 10,Firefox 107.0,1536x864,1536x864,End of Day 1,SLS,90,B,NaN,NaN,NaN,Pass,End of Day 1,Pass,NaN,Pass,NaN,Pass,schedule_A,schedule_A,3,1,4,feedback_l,Zone7,timelimit_screen,1999.84,NaN,NaN,,NaN,0,1,0,NaN,NaN,1,NaN,NaN,trial_left,redBox.png,redBox.png,yellowBox.png,al1_con.png,3,2,NaN,NaN,0.85,0.85,1,1,1,1,Volatile,Stable,1.782,1.168,1.168,2.462,expert
13,1671223488660,16/12/2022 20:44:48,1671223490868,0,16/12/2022 20:44:50,109680,37,task-v1fs,repeat-u7ds#1->-repeat-l3h2#1->-repeat-pi7a#1->-repeat-apgu#1,25998812,BLIND,7674790,NaN,complete,NaN,NaN,computer,Desktop or Laptop,Windows 10,Firefox 107.0,1536x864,1536x864,End of Day 1,SLS,90,B,NaN,NaN,NaN,Pass,End of Day 1,Pass,NaN,Pass,NaN,Pass,schedule_A,schedule_A,3,1,6,end,Zone1,timelimit_screen,150,NaN,NaN,,NaN,0,1,0,NaN,NaN,1,NaN,NaN,trial_left,redBox.png,redBox.png,yellowBox.png,al1_con.png,3,2,NaN,NaN,0.85,0.85,1,1,1,1,Volatile,Stable,1.782,1.168,1.168,2.462,expert
14,1671223489365,16/12/2022 20:44:49,1671223491573,0,16/12/2022 20:44:51,109680,37,task-v1fs,repeat-u7ds#1->-repeat-l3h2#1->-repeat-pi7a#1->-repeat-apgu#1,25998812,BLIND,7674790,NaN,complete,NaN,NaN,computer,Desktop or Laptop,Windows 10,Firefox 107.0,1536x864,1536x864,End of Day 1,SLS,90,B,NaN,NaN,NaN,Pass,End of Day 1,Pass,NaN,Pass,NaN,Pass,schedule_A,schedule_A,4,2,1,Screen 1,Zone1,continue_button,688,NaN,NaN,,NaN,0,1,0,NaN,NaN,NaN,NaN,NaN,trial_right,redBox.png,yellowBox.png,redBox.png,al1_con.png,4,3,NaN,NaN,0.85,0.85,1,1,1,0,Volatile,Stable,1.983,1.181,0.538,1.588,expert
15,1671223490364,16/12/2022 20:44:50,1671223492570,0,16/12/2022 20:44:52,109680,37,task-v1fs,repeat-u7ds#1->-repeat-l3h2#1->-repeat-pi7a#1->-repeat-apgu#1,25998812,BLIND,7674790,NaN,complete,NaN,NaN,computer,Desktop or Laptop,Windows 10,Firefox 107.0,1536x864,1536x864,End of Day 1,SLS,90,B,NaN,NaN,NaN,Pass,End of Day 1,Pass,NaN,Pass,NaN,Pass,schedule_A,schedule_A,4,2,2,individual,Zone4,timelimit_screen,999.939999999999,NaN,NaN,,NaN,0,1,0,NaN,NaN,1,NaN,NaN,trial_right,redBox.png,yellowBox.png,redBox.png,al1_con.png,4,3,NaN,NaN,0.85,0.85,1,1,1,0,Volatile,Stable,1.983,1.181,0.538,1.588,expert
16,1671223491312,16/12/2022 20:44:51,1671223493517,0,16/12/2022 20:44:53,109680,37,task-v1fs,repeat-u7ds#1->-repeat-l3h2#1->-repeat-pi7a#1->-repeat-apgu#1,25998812,BLIND,7674790,NaN,complete,NaN,NaN,computer,Desktop or Laptop,Windows 10,Firefox 107.0,1536x864,1536x864,End of Day 1,SLS,90,B,NaN,NaN,NaN,Pass,End of Day 1,Pass,NaN,Pass,NaN,Pass,schedule_A,schedule_A,4,2,3,offer,Zone3,response_button_image,939,NaN,NaN,redBox.png,1,1,0,0,NaN,NaN,NaN,NaN,NaN,trial_right,redBox.png,yellowBox.png,redBox.png,al1_con.png,4,3,NaN,NaN,0.85,0.85,1,1,1,0,Volatile,Stable,1.983,1.181,0.538,1.588,expert
17,1671223493311,16/12/2022 20:44:53,1671223495519,0,16/12/2022 20:44:55,109680,37,task-v1fs,repeat-u7ds#1->-repeat-l3h2#1->-repeat-pi7a#1->-repeat-apgu#1,25998812,BLIND,7674790,NaN,complete,NaN,NaN,computer,Desktop or Laptop,Windows 10,Firefox 107.0,1536x864,1536x864,End of Day 1,SLS,90,B,NaN,NaN,NaN,Pass,End of Day 1,Pass,NaN,Pass,NaN,Pass,schedule_A,schedule_A,4,2,5,feedback_r,Zone7,timelimit_screen,1999.9,NaN,NaN,,NaN,0,1,0,NaN,NaN,1,NaN,NaN,trial_right,redBox.png,yellowBox.png,redBox.png,al1_con.png,4,3,NaN,NaN,0.85,0.85,1,1,1,0,Volatile,Stable,1.983,1.181,0.538,1.588,expert
18,1671223493459,16/12/2022 20:44:53,1671223495669,0,16/12/2022 20:44:55,109680,37,task-v1fs,repeat-u7ds#1->-repeat-l3h2#1->-repeat-pi7a#1->-repeat-apgu#1,25998812,BLIND,7674790,NaN,complete,NaN,NaN,computer,Desktop or Laptop,Windows 10,Firefox 107.0,1536x864,1536x864,End of Day 1,SLS,90,B,NaN,NaN,NaN,Pass,End of Day 1,Pass,NaN,Pass,NaN,Pass,schedule_A,schedule_A,4,2,6,end,Zone1,timelimit_screen,150,NaN,NaN,,NaN,0,1,0,NaN,NaN,1,NaN,NaN,trial_right,redBox.png,yellowBox.png,redBox.png,al1_con.png,4,3,NaN,NaN,0.85,0.85,1,1,1,0,Volatile,Stable,1.983,1.181,0.538,1.588,expert
19,1671223494009,16/12/2022 20:44:54,1671223496218,0,16/12/2022 20:44:56,109680,37,task-v1fs,repeat-u7ds#1->-repeat-l3h2#1->-repeat-pi7a#1->-repeat-apgu#1,25998812,BLIND,7674790,NaN,complete,NaN,NaN,computer,Desktop or Laptop,Windows 10,Firefox 107.0,1536x864,1536x864,End of Day 1,SLS,90,B,NaN,NaN,NaN,Pass,End of Day 1,Pass,NaN,Pass,NaN,Pass,schedule_A,schedule_A,5,3,1,Screen 1,Zone1,continue_button,533,NaN,NaN,,NaN,0,1,0,NaN,NaN,NaN,NaN,NaN,trial_right,redBox.png,yellowBox.png,redBox.png,al1_con.png,5,4,NaN,NaN,0.85,0.85,1,1,1,0,Volatile,Stable,1.529,0.891,1.004,1,expert
20,1671223495009,16/12/2022 20:44:55,1671223497219,0,16/12/2022 20:44:57,109680,37,task-v1fs,repeat-u7ds#1->-repeat-l3h2#1->-repeat-pi7a#1->-repeat-apgu#1,25998812,BLIND,7674790,NaN,complete,NaN,NaN,computer,Desktop or Laptop,Windows 10,Firefox 107.0,1536x864,1536x864,End of Day 1,SLS,90,B,NaN,NaN,NaN,Pass,End of Day 1,Pass,NaN,Pass,NaN,Pass,schedule_A,schedule_A,5,3,2,individual,Zone4,timelimit_screen,999.860000000001,NaN,NaN,,NaN,0,1,0,NaN,NaN,1,NaN,NaN,trial_right,redBox.png,yellowBox.png,redBox.png,al1_con.png,5,4,NaN,NaN,0.85,0.85,1,1,1,0,Volatile,Stable,1.529,0.891,1.004,1,expert
21,1671223495593,16/12/2022 20:44:55,1671223497806,0,16/12/2022 20:44:57,109680,37,task-v1fs,repeat-u7ds#1->-repeat-l3h2#1->-repeat-pi7a#1->-repeat-apgu#1,25998812,BLIND,7674790,NaN,complete,NaN,NaN,computer,Desktop or Laptop,Windows 10,Firefox 107.0,1536x864,1536x864,End of Day 1,SLS,90,B,NaN,NaN,NaN,Pass,End of Day 1,Pass,NaN,Pass,NaN,Pass,schedule_A,schedule_A,5,3,3,offer,Zone3,response_button_image,578,NaN,NaN,redBox.png,1,1,0,0,NaN,NaN,NaN,NaN,NaN,trial_right,redBox.png,yellowBox.png,redBox.png,al1_con.png,5,4,NaN,NaN,0.85,0.85,1,1,1,0,Volatile,Stable,1.529,0.891,1.004,1,expert
22,1671223497605,16/12/2022 20:44:57,1671223499800,0,16/12/2022 20:44:59,109680,37,task-v1fs,repeat-u7ds#1->-repeat-l3h2#1->-repeat-pi7a#1->-repeat-apgu#1,25998812,BLIND,7674790,NaN,complete,NaN,NaN,computer,Desktop or Laptop,Windows 10,Firefox 107.0,1536x864,1536x864,End of Day 1,SLS,90,B,NaN,NaN,NaN,Pass,End of Day 1,Pass,NaN,Pass,NaN,Pass,schedule_A,schedule_A,5,3,5,feedback_r,Zone7,timelimit_screen,1999.88,NaN,NaN,,NaN,0,1,0,NaN,NaN,1,NaN,NaN,trial_right,redBox.png,yellowBox.png,redBox.png,al1_con.png,5,4,NaN,NaN,0.85,0.85,1,1,1,0,Volatile,Stable,1.529,0.891,1.004,1,expert
23,1671223497742,16/12/2022 20:44:57,1671223499952,0,16/12/2022 20:44:59,109680,37,task-v1fs,repeat-u7ds#1->-repeat-l3h2#1->-repeat-pi7a#1->-repeat-apgu#1,25998812,BLIND,7674790,NaN,complete,NaN,NaN,computer,Desktop or Laptop,Windows 10,Firefox 107.0,1536x864,1536x864,End of Day 1,SLS,90,B,NaN,NaN,NaN,Pass,End of Day 1,Pass,NaN,Pass,NaN,Pass,schedule_A,schedule_A,5,3,6,end,Zone1,timelimit_screen,149.919999999998,NaN,NaN,,NaN,0,1,0,NaN,NaN,1,NaN,NaN,trial_right,redBox.png,yellowBox.png,redBox.png,al1_con.png,5,4,NaN,NaN,0.85,0.85,1,1,1,0,Volatile,Stable,1.529,0.891,1.004,1,expert
24,1671223498441,16/12/2022 20:44:58,1671223500647,0,16/12/2022 20:45:00,109680,37,task-v1fs,repeat-u7ds#1->-repeat-l3h2#1->-repeat-pi7a#1->-repeat-apgu#1,25998812,BLIND,7674790,NaN,complete,NaN,NaN,computer,Desktop or Laptop,Windows 10,Firefox 107.0,1536x864,1536x864,End of Day 1,SLS,90,B,NaN,NaN,NaN,Pass,End of Day 1,Pass,NaN,Pass,NaN,Pass,schedule_A,schedule_A,6,2,1,Screen 1,Zone1,continue_button,680,NaN,NaN,,NaN,0,1,0,NaN,NaN,NaN,NaN,NaN,trial_left,redBox.png,redBox.png,yellowBox.png,al1_con.png,6,5,NaN,NaN,0.85,0.85,1,1,1,1,Volatile,Stable,1.832,1.118,0.752,1.79,expert
25,1671223499445,16/12/2022 20:44:59,1671223501635,0,16/12/2022 20:45:01,109680,37,task-v1fs,repeat-u7ds#1->-repeat-l3h2#1->-repeat-pi7a#1->-repeat-apgu#1,25998812,BLIND,7674790,NaN,complete,NaN,NaN,computer,Desktop or Laptop,Windows 10,Firefox 107.0,1536x864,1536x864,End of Day 1,SLS,90,B,NaN,NaN,NaN,Pass,End of Day 1,Pass,NaN,Pass,NaN,Pass,schedule_A,schedule_A,6,2,2,individual,Zone4,timelimit_screen,999.900000000001,NaN,NaN,,NaN,0,1,0,NaN,NaN,1,NaN,NaN,trial_left,redBox.png,redBox.png,yellowBox.png,al1_con.png,6,5,NaN,NaN,0.85,0.85,1,1,1,1,Volatile,Stable,1.832,1.118,0.752,1.79,expert
26,1671223499809,16/12/2022 20:44:59,1671223502016,0,16/12/2022 20:45:02,109680,37,task-v1fs,repeat-u7ds#1->-repeat-l3h2#1->-repeat-pi7a#1->-repeat-apgu#1,25998812,BLIND,7674790,NaN,complete,NaN,NaN,computer,Desktop or Laptop,Windows 10,Firefox 107.0,1536x864,1536x864,End of Day 1,SLS,90,B,NaN,NaN,NaN,Pass,End of Day 1,Pass,NaN,Pass,NaN,Pass,schedule_A,schedule_A,6,2,3,offer,Zone2,response_button_image,365,NaN,NaN,redBox.png,1,1,0,0,NaN,NaN,NaN,NaN,NaN,trial_left,redBox.png,redBox.png,yellowBox.png,al1_con.png,6,5,NaN,NaN,0.85,0.85,1,1,1,1,Volatile,Stable,1.832,1.118,0.752,1.79,expert
27,1671223501786,16/12/2022 20:45:01,1671223503999,0,16/12/2022 20:45:03,109680,37,task-v1fs,repeat-u7ds#1->-repeat-l3h2#1->-repeat-pi7a#1->-repeat-apgu#1,25998812,BLIND,7674790,NaN,complete,NaN,NaN,computer,Desktop or Laptop,Windows 10,Firefox 107.0,1536x864,1536x864,End of Day 1,SLS,90,B,NaN,NaN,NaN,Pass,End of Day 1,Pass,NaN,Pass,NaN,Pass,schedule_A,schedule_A,6,2,4,feedback_l,Zone7,timelimit_screen,1999.78,NaN,NaN,,NaN,0,1,0,NaN,NaN,1,NaN,NaN,trial_left,redBox.png,redBox.png,yellowBox.png,al1_con.png,6,5,NaN,NaN,0.85,0.85,1,1,1,1,Volatile,Stable,1.832,1.118,0.752,1.79,expert
28,1671223501941,16/12/2022 20:45:01,1671223504151,0,16/12/2022 20:45:04,109680,37,task-v1fs,repeat-u7ds#1->-repeat-l3h2#1->-repeat-pi7a#1->-repeat-apgu#1,25998812,BLIND,7674790,NaN,complete,NaN,NaN,computer,Desktop or Laptop,Windows 10,Firefox 107.0,1536x864,1536x864,End of Day 1,SLS,90,B,NaN,NaN,NaN,Pass,End of Day 1,Pass,NaN,Pass,NaN,Pass,schedule_A,schedule_A,6,2,6,end,Zone1,timelimit_screen,150,NaN,NaN,,NaN,0,1,0,NaN,NaN,1,NaN,NaN,trial_left,redBox.png,redBox.png,yellowBox.png,al1_con.png,6,5,NaN,NaN,0.85,0.85,1,1,1,1,Volatile,Stable,1.832,1.118,0.752,1.79,expert
29,1671223502207,16/12/2022 20:45:02,1671223504411,0,16/12/2022 20:45:04,109680,37,task-v1fs,repeat-u7ds#1->-repeat-l3h2#1->-repeat-pi7a#1->-repeat-apgu#1,25998812,BLIND,7674790,NaN,complete,NaN,NaN,computer,Desktop or Laptop,Windows 10,Firefox 107.0,1536x864,1536x864,End of Day 1,SLS,90,B,NaN,NaN,NaN,Pass,End of Day 1,Pass,NaN,Pass,NaN,Pass,schedule_A,schedule_A,7,4,1,Screen 1,Zone1,continue_button,245,NaN,NaN,,NaN,0,1,0,NaN,NaN,NaN,NaN,NaN,trial_right,yellowBox.png,redBox.png,yellowBox.png,al1_con.png,7,6,NaN,NaN,0.15,0.85,0,1,0,1,Volatile,Stable,3.294,0.815,1.282,2.664,expert
30,1671223503186,16/12/2022 20:45:03,1671223505401,0,16/12/2022 20:45:05,109680,37,task-v1fs,repeat-u7ds#1->-repeat-l3h2#1->-repeat-pi7a#1->-repeat-apgu#1,25998812,BLIND,7674790,NaN,complete,NaN,NaN,computer,Desktop or Laptop,Windows 10,Firefox 107.0,1536x864,1536x864,End of Day 1,SLS,90,B,NaN,NaN,NaN,Pass,End of Day 1,Pass,NaN,Pass,NaN,Pass,schedule_A,schedule_A,7,4,2,individual,Zone4,timelimit_screen,999.960000000003,NaN,NaN,,NaN,0,1,0,NaN,NaN,1,NaN,NaN,trial_right,yellowBox.png,redBox.png,yellowBox.png,al1_con.png,7,6,NaN,NaN,0.15,0.85,0,1,0,1,Volatile,Stable,3.294,0.815,1.282,2.664,expert
31,1671223503695,16/12/2022 20:45:03,1671223505903,0,16/12/2022 20:45:05,109680,37,task-v1fs,repeat-u7ds#1->-repeat-l3h2#1->-repeat-pi7a#1->-repeat-apgu#1,25998812,BLIND,7674790,NaN,complete,NaN,NaN,computer,Desktop or Laptop,Windows 10,Firefox 107.0,1536x864,1536x864,End of Day 1,SLS,90,B,NaN,NaN,NaN,Pass,End of Day 1,Pass,NaN,Pass,NaN,Pass,schedule_A,schedule_A,7,4,3,offer,Zone3,response_button_image,493,NaN,NaN,yellowBox.png,1,1,0,0,NaN,NaN,NaN,NaN,NaN,trial_right,yellowBox.png,redBox.png,yellowBox.png,al1_con.png,7,6,NaN,NaN,0.15,0.85,0,1,0,1,Volatile,Stable,3.294,0.815,1.282,2.664,expert
32,1671223505696,16/12/2022 20:45:05,1671223507902,0,16/12/2022 20:45:07,109680,37,task-v1fs,repeat-u7ds#1->-repeat-l3h2#1->-repeat-pi7a#1->-repeat-apgu#1,25998812,BLIND,7674790,NaN,complete,NaN,NaN,computer,Desktop or Laptop,Windows 10,Firefox 107.0,1536x864,1536x864,End of Day 1,SLS,90,B,NaN,NaN,NaN,Pass,End of Day 1,Pass,NaN,Pass,NaN,Pass,schedule_A,schedule_A,7,4,5,feedback_r,Zone7,timelimit_screen,1999.86,NaN,NaN,,NaN,0,1,0,NaN,NaN,1,NaN,NaN,trial_right,yellowBox.png,redBox.png,yellowBox.png,al1_con.png,7,6,NaN,NaN,0.15,0.85,0,1,0,1,Volatile,Stable,3.294,0.815,1.282,2.664,expert
33,1671223505841,16/12/2022 20:45:05,1671223508049,0,16/12/2022 20:45:08,109680,37,task-v1fs,repeat-u7ds#1->-repeat-l3h2#1->-repeat-pi7a#1->-repeat-apgu#1,25998812,BLIND,7674790,NaN,complete,NaN,NaN,computer,Desktop or Laptop,Windows 10,Firefox 107.0,1536x864,1536x864,End of Day 1,SLS,90,B,NaN,NaN,NaN,Pass,End of Day 1,Pass,NaN,Pass,NaN,Pass,schedule_A,schedule_A,7,4,6,end,Zone1,timelimit_screen,149.939999999995,NaN,NaN,,NaN,0,1,0,NaN,NaN,1,NaN,NaN,trial_right,yellowBox.png,redBox.png,yellowBox.png,al1_con.png,7,6,NaN,NaN,0.15,0.85,0,1,0,1,Volatile,Stable,3.294,0.815,1.282,2.664,expert
34,1671223506260,16/12/2022 20:45:06,1671223508461,0,16/12/2022 20:45:08,109680,37,task-v1fs,repeat-u7ds#1->-repeat-l3h2#1->-repeat-pi7a#1->-repeat-apgu#1,25998812,BLIND,7674790,NaN,complete,NaN,NaN,computer,Desktop or Laptop,Windows 10,Firefox 107.0,1536x864,1536x864,End of Day 1,SLS,90,B,NaN,NaN,NaN,Pass,End of Day 1,Pass,NaN,Pass,NaN,Pass,schedule_A,schedule_A,8,3,1,Screen 1,Zone1,continue_button,399,NaN,NaN,,NaN,0,1,0,NaN,NaN,NaN,NaN,NaN,trial_left,yellowBox.png,yellowBox.png,redBox.png,al1_con.png,8,7,NaN,NaN,0.15,0.85,0,1,0,0,Volatile,Stable,3.269,1.37,1.786,2.328,expert
35,1671223507252,16/12/2022 20:45:07,1671223509451,0,16/12/2022 20:45:09,109680,37,task-v1fs,repeat-u7ds#1->-repeat-l3h2#1->-repeat-pi7a#1->-repeat-apgu#1,25998812,BLIND,7674790,NaN,complete,NaN,NaN,computer,Desktop or Laptop,Windows 10,Firefox 107.0,1536x864,1536x864,End of Day 1,SLS,90,B,NaN,NaN,NaN,Pass,End of Day 1,Pass,NaN,Pass,NaN,Pass,schedule_A,schedule_A,8,3,2,individual,Zone4,timelimit_screen,999.940000000002,NaN,NaN,,NaN,0,1,0,NaN,NaN,1,NaN,NaN,trial_left,yellowBox.png,yellowBox.png,redBox.png,al1_con.png,8,7,NaN,NaN,0.15,0.85,0,1,0,0,Volatile,Stable,3.269,1.37,1.786,2.328,expert
36,1671223507872,16/12/2022 20:45:07,1671223510083,0,16/12/2022 20:45:10,109680,37,task-v1fs,repeat-u7ds#1->-repeat-l3h2#1->-repeat-pi7a#1->-repeat-apgu#1,25998812,BLIND,7674790,NaN,complete,NaN,NaN,computer,Desktop or Laptop,Windows 10,Firefox 107.0,1536x864,1536x864,End of Day 1,SLS,90,B,NaN,NaN,NaN,Pass,End of Day 1,Pass,NaN,Pass,NaN,Pass,schedule_A,schedule_A,8,3,3,offer,Zone2,response_button_image,625,NaN,NaN,yellowBox.png,1,1,0,0,NaN,NaN,NaN,NaN,NaN,trial_left,yellowBox.png,yellowBox.png,redBox.png,al1_con.png,8,7,NaN,NaN,0.15,0.85,0,1,0,0,Volatile,Stable,3.269,1.37,1.786,2.328,expert
37,1671223509880,16/12/2022 20:45:09,1671223512084,0,16/12/2022 20:45:12,109680,37,task-v1fs,repeat-u7ds#1->-repeat-l3h2#1->-repeat-pi7a#1->-repeat-apgu#1,25998812,BLIND,7674790,NaN,complete,NaN,NaN,computer,Desktop or Laptop,Windows 10,Firefox 107.0,1536x864,1536x864,End of Day 1,SLS,90,B,NaN,NaN,NaN,Pass,End of Day 1,Pass,NaN,Pass,NaN,Pass,schedule_A,schedule_A,8,3,4,feedback_l,Zone7,timelimit_screen,1999.92,NaN,NaN,,NaN,0,1,0,NaN,NaN,1,NaN,NaN,trial_left,yellowBox.png,yellowBox.png,redBox.png,al1_con.png,8,7,NaN,NaN,0.15,0.85,0,1,0,0,Volatile,Stable,3.269,1.37,1.786,2.328,expert
38,1671223510026,16/12/2022 20:45:10,1671223512234,0,16/12/2022 20:45:12,109680,37,task-v1fs,repeat-u7ds#1->-repeat-l3h2#1->-repeat-pi7a#1->-repeat-apgu#1,25998812,BLIND,7674790,NaN,complete,NaN,NaN,computer,Desktop or Laptop,Windows 10,Firefox 107.0,1536x864,1536x864,End of Day 1,SLS,90,B,NaN,NaN,NaN,Pass,End of Day 1,Pass,NaN,Pass,NaN,Pass,schedule_A,schedule_A,8,3,6,end,Zone1,timelimit_screen,150,NaN,NaN,,NaN,0,1,0,NaN,NaN,1,NaN,NaN,trial_left,yellowBox.png,yellowBox.png,redBox.png,al1_con.png,8,7,NaN,NaN,0.15,0.85,0,1,0,0,Volatile,Stable,3.269,1.37,1.786,2.328,expert
39,1671223510530,16/12/2022 20:45:10,1671223512739,0,16/12/2022 20:45:12,109680,37,task-v1fs,repeat-u7ds#1->-repeat-l3h2#1->-repeat-pi7a#1->-repeat-apgu#1,25998812,BLIND,7674790,NaN,complete,NaN,NaN,computer,Desktop or Laptop,Windows 10,Firefox 107.0,1536x864,1536x864,End of Day 1,SLS,90,B,NaN,NaN,NaN,Pass,End of Day 1,Pass,NaN,Pass,NaN,Pass,schedule_A,schedule_A,9,4,1,Screen 1,Zone1,continue_button,490,NaN,NaN,,NaN,0,1,0,NaN,NaN,NaN,NaN,NaN,trial_left,yellowBox.png,redBox.png,yellowBox.png,al1_con.png,9,8,NaN,NaN,0.15,0.85,0,0,1,1,Volatile,Stable,3.975,0.576,1.256,1.807,expert
40,1671223511516,16/12/2022 20:45:11,1671223513734,0,16/12/2022 20:45:13,109680,37,task-v1fs,repeat-u7ds#1->-repeat-l3h2#1->-repeat-pi7a#1->-repeat-apgu#1,25998812,BLIND,7674790,NaN,complete,NaN,NaN,computer,Desktop or Laptop,Windows 10,Firefox 107.0,1536x864,1536x864,End of Day 1,SLS,90,B,NaN,NaN,NaN,Pass,End of Day 1,Pass,NaN,Pass,NaN,Pass,schedule_A,schedule_A,9,4,2,individual,Zone4,timelimit_screen,999.860000000001,NaN,NaN,,NaN,0,1,0,NaN,NaN,1,NaN,NaN,trial_left,yellowBox.png,redBox.png,yellowBox.png,al1_con.png,9,8,NaN,NaN,0.15,0.85,0,0,1,1,Volatile,Stable,3.975,0.576,1.256,1.807,expert
41,1671223512541,16/12/2022 20:45:12,1671223514738,0,16/12/2022 20:45:14,109680,37,task-v1fs,repeat-u7ds#1->-repeat-l3h2#1->-repeat-pi7a#1->-repeat-apgu#1,25998812,BLIND,7674790,NaN,complete,NaN,NaN,computer,Desktop or Laptop,Windows 10,Firefox 107.0,1536x864,1536x864,End of Day 1,SLS,90,B,NaN,NaN,NaN,Pass,End of Day 1,Pass,NaN,Pass,NaN,Pass,schedule_A,schedule_A,9,4,3,offer,bluebox,response_button_image,996,NaN,NaN,yellowBox.png,1,1,0,0,NaN,NaN,NaN,NaN,NaN,trial_left,yellowBox.png,redBox.png,yellowBox.png,al1_con.png,9,8,NaN,NaN,0.15,0.85,0,0,1,1,Volatile,Stable,3.975,0.576,1.256,1.807,expert
42,1671223514518,16/12/2022 20:45:14,1671223516733,0,16/12/2022 20:45:16,109680,37,task-v1fs,repeat-u7ds#1->-repeat-l3h2#1->-repeat-pi7a#1->-repeat-apgu#1,25998812,BLIND,7674790,NaN,complete,NaN,NaN,computer,Desktop or Laptop,Windows 10,Firefox 107.0,1536x864,1536x864,End of Day 1,SLS,90,B,NaN,NaN,NaN,Pass,End of Day 1,Pass,NaN,Pass,NaN,Pass,schedule_A,schedule_A,9,4,5,feedback_r,Zone7,timelimit_screen,1999.9,NaN,NaN,,NaN,0,1,0,NaN,NaN,1,NaN,NaN,trial_left,yellowBox.png,redBox.png,yellowBox.png,al1_con.png,9,8,NaN,NaN,0.15,0.85,0,0,1,1,Volatile,Stable,3.975,0.576,1.256,1.807,expert
43,1671223514663,16/12/2022 20:45:14,1671223516881,0,16/12/2022 20:45:16,109680,37,task-v1fs,repeat-u7ds#1->-repeat-l3h2#1->-repeat-pi7a#1->-repeat-apgu#1,25998812,BLIND,7674790,NaN,complete,NaN,NaN,computer,Desktop or Laptop,Windows 10,Firefox 107.0,1536x864,1536x864,End of Day 1,SLS,90,B,NaN,NaN,NaN,Pass,End of Day 1,Pass,NaN,Pass,NaN,Pass,schedule_A,schedule_A,9,4,6,end,Zone1,timelimit_screen,149.900000000001,NaN,NaN,,NaN,0,1,0,NaN,NaN,1,NaN,NaN,trial_left,yellowBox.png,redBox.png,yellowBox.png,al1_con.png,9,8,NaN,NaN,0.15,0.85,0,0,1,1,Volatile,Stable,3.975,0.576,1.256,1.807,expert
44,1671223515307,16/12/2022 20:45:15,1671223517522,0,16/12/2022 20:45:17,109680,37,task-v1fs,repeat-u7ds#1->-repeat-l3h2#1->-repeat-pi7a#1->-repeat-apgu#1,25998812,BLIND,7674790,NaN,complete,NaN,NaN,computer,Desktop or Laptop,Windows 10,Firefox 107.0,1536x864,1536x864,End of Day 1,SLS,90,B,NaN,NaN,NaN,Pass,End of Day 1,Pass,NaN,Pass,NaN,Pass,schedule_A,schedule_A,10,5,1,Screen 1,Zone1,continue_button,630,NaN,NaN,,NaN,0,1,0,NaN,NaN,NaN,NaN,NaN,trial_right,redBox.png,redBox.png,yellowBox.png,al1_con.png,10,9,NaN,NaN,0.15,0.85,1,0,0,1,Volatile,Stable,3.798,1.055,1.559,2.042,expert
45,1671223516313,16/12/2022 20:45:16,1671223518514,0,16/12/2022 20:45:18,109680,37,task-v1fs,repeat-u7ds#1->-repeat-l3h2#1->-repeat-pi7a#1->-repeat-apgu#1,25998812,BLIND,7674790,NaN,complete,NaN,NaN,computer,Desktop or Laptop,Windows 10,Firefox 107.0,1536x864,1536x864,End of Day 1,SLS,90,B,NaN,NaN,NaN,Pass,End of Day 1,Pass,NaN,Pass,NaN,Pass,schedule_A,schedule_A,10,5,2,individual,Zone4,timelimit_screen,999.860000000001,NaN,NaN,,NaN,0,1,0,NaN,NaN,1,NaN,NaN,trial_right,redBox.png,redBox.png,yellowBox.png,al1_con.png,10,9,NaN,NaN,0.15,0.85,1,0,0,1,Volatile,Stable,3.798,1.055,1.559,2.042,expert
46,1671223516780,16/12/2022 20:45:16,1671223518988,0,16/12/2022 20:45:18,109680,37,task-v1fs,repeat-u7ds#1->-repeat-l3h2#1->-repeat-pi7a#1->-repeat-apgu#1,25998812,BLIND,7674790,NaN,complete,NaN,NaN,computer,Desktop or Laptop,Windows 10,Firefox 107.0,1536x864,1536x864,End of Day 1,SLS,90,B,NaN,NaN,NaN,Pass,End of Day 1,Pass,NaN,Pass,NaN,Pass,schedule_A,schedule_A,10,5,3,offer,Zone3,response_button_image,468,NaN,NaN,yellowBox.png,1,0,1,0,NaN,NaN,NaN,NaN,NaN,trial_right,redBox.png,redBox.png,yellowBox.png,al1_con.png,10,9,NaN,NaN,0.15,0.85,1,0,0,1,Volatile,Stable,3.798,1.055,1.559,2.042,expert
47,1671223518782,16/12/2022 20:45:18,1671223520981,0,16/12/2022 20:45:20,109680,37,task-v1fs,repeat-u7ds#1->-repeat-l3h2#1->-repeat-pi7a#1->-repeat-apgu#1,25998812,BLIND,7674790,NaN,complete,NaN,NaN,computer,Desktop or Laptop,Windows 10,Firefox 107.0,1536x864,1536x864,End of Day 1,SLS,90,B,NaN,NaN,NaN,Pass,End of Day 1,Pass,NaN,Pass,NaN,Pass,schedule_A,schedule_A,10,5,5,feedback_r,Zone7,timelimit_screen,1999.82,NaN,NaN,,NaN,0,1,0,NaN,NaN,1,NaN,NaN,trial_right,redBox.png,redBox.png,yellowBox.png,al1_con.png,10,9,NaN,NaN,0.15,0.85,1,0,0,1,Volatile,Stable,3.798,1.055,1.559,2.042,expert
48,1671223518928,16/12/2022 20:45:18,1671223521133,0,16/12/2022 20:45:21,109680,37,task-v1fs,repeat-u7ds#1->-repeat-l3h2#1->-repeat-pi7a#1->-repeat-apgu#1,25998812,BLIND,7674790,NaN,complete,NaN,NaN,computer,Desktop or Laptop,Windows 10,Firefox 107.0,1536x864,1536x864,End of Day 1,SLS,90,B,NaN,NaN,NaN,Pass,End of Day 1,Pass,NaN,Pass,NaN,Pass,schedule_A,schedule_A,10,5,6,end,Zone1,timelimit_screen,150,NaN,NaN,,NaN,0,1,0,NaN,NaN,1,NaN,NaN,trial_right,redBox.png,redBox.png,yellowBox.png,al1_con.png,10,9,NaN,NaN,0.15,0.85,1,0,0,1,Volatile,Stable,3.798,1.055,1.559,2.042,expert
49,1671223519469,16/12/2022 20:45:19,1671223521685,0,16/12/2022 20:45:21,109680,37,task-v1fs,repeat-u7ds#1->-repeat-l3h2#1->-repeat-pi7a#1->-repeat-apgu#1,25998812,BLIND,7674790,NaN,complete,NaN,NaN,computer,Desktop or Laptop,Windows 10,Firefox 107.0,1536x864,1536x864,End of Day 1,SLS,90,B,NaN,NaN,NaN,Pass,End of Day 1,Pass,NaN,Pass,NaN,Pass,schedule_A,schedule_A,11,6,1,Screen 1,Zone1,continue_button,533,NaN,NaN,,NaN,0,1,0,NaN,NaN,NaN,NaN,NaN,trial_right,yellowBox.png,redBox.png,yellowBox.png,al1_con.png,21,10,NaN,NaN,0.15,0.85,0,1,0,1,Volatile,Stable,1.857,0.5,1.294,2.916,expert
50,1671223520481,16/12/2022 20:45:20,1671223522682,0,16/12/2022 20:45:22,109680,37,task-v1fs,repeat-u7ds#1->-repeat-l3h2#1->-repeat-pi7a#1->-repeat-apgu#1,25998812,BLIND,7674790,NaN,complete,NaN,NaN,computer,Desktop or Laptop,Windows 10,Firefox 107.0,1536x864,1536x864,End of Day 1,SLS,90,B,NaN,NaN,NaN,Pass,End of Day 1,Pass,NaN,Pass,NaN,Pass,schedule_A,schedule_A,11,6,2,individual,Zone4,timelimit_screen,999.860000000001,NaN,NaN,,NaN,0,1,0,NaN,NaN,1,NaN,NaN,trial_right,yellowBox.png,redBox.png,yellowBox.png,al1_con.png,21,10,NaN,NaN,0.15,0.85,0,1,0,1,Volatile,Stable,1.857,0.5,1.294,2.916,expert
51,1671223521088,16/12/2022 20:45:21,1671223523306,0,16/12/2022 20:45:23,109680,37,task-v1fs,repeat-u7ds#1->-repeat-l3h2#1->-repeat-pi7a#1->-repeat-apgu#1,25998812,BLIND,7674790,NaN,complete,NaN,NaN,computer,Desktop or Laptop,Windows 10,Firefox 107.0,1536x864,1536x864,End of Day 1,SLS,90,B,NaN,NaN,NaN,Pass,End of Day 1,Pass,NaN,Pass,NaN,Pass,schedule_A,schedule_A,11,6,3,offer,Zone2,response_button_image,619,NaN,NaN,redBox.png,1,0,1,0,NaN,NaN,NaN,NaN,NaN,trial_right,yellowBox.png,redBox.png,yellowBox.png,al1_con.png,21,10,NaN,NaN,0.15,0.85,0,1,0,1,Volatile,Stable,1.857,0.5,1.294,2.916,expert
52,1671223523095,16/12/2022 20:45:23,1671223525299,0,16/12/2022 20:45:25,109680,37,task-v1fs,repeat-u7ds#1->-repeat-l3h2#1->-repeat-pi7a#1->-repeat-apgu#1,25998812,BLIND,7674790,NaN,complete,NaN,NaN,computer,Desktop or Laptop,Windows 10,Firefox 107.0,1536x864,1536x864,End of Day 1,SLS,90,B,NaN,NaN,NaN,Pass,End of Day 1,Pass,NaN,Pass,NaN,Pass,schedule_A,schedule_A,11,6,4,feedback_l,Zone7,timelimit_screen,1999.89999999999,NaN,NaN,,NaN,0,1,0,NaN,NaN,1,NaN,NaN,trial_right,yellowBox.png,redBox.png,yellowBox.png,al1_con.png,21,10,NaN,NaN,0.15,0.85,0,1,0,1,Volatile,Stable,1.857,0.5,1.294,2.916,expert
53,1671223523227,16/12/2022 20:45:23,1671223525446,0,16/12/2022 20:45:25,109680,37,task-v1fs,repeat-u7ds#1->-repeat-l3h2#1->-repeat-pi7a#1->-repeat-apgu#1,25998812,BLIND,7674790,NaN,complete,NaN,NaN,computer,Desktop or Laptop,Windows 10,Firefox 107.0,1536x864,1536x864,End of Day 1,SLS,90,B,NaN,NaN,NaN,Pass,End of Day 1,Pass,NaN,Pass,NaN,Pass,schedule_A,schedule_A,11,6,6,end,Zone1,timelimit_screen,149.940000000002,NaN,NaN,,NaN,0,1,0,NaN,NaN,1,NaN,NaN,trial_right,yellowBox.png,redBox.png,yellowBox.png,al1_con.png,21,10,NaN,NaN,0.15,0.85,0,1,0,1,Volatile,Stable,1.857,0.5,1.294,2.916,expert
54,1671223524575,16/12/2022 20:45:24,1671223526791,0,16/12/2022 20:45:26,109680,37,task-v1fs,repeat-u7ds#1->-repeat-l3h2#1->-repeat-pi7a#1->-repeat-apgu#1,25998812,BLIND,7674790,NaN,complete,NaN,NaN,computer,Desktop or Laptop,Windows 10,Firefox 107.0,1536x864,1536x864,End of Day 1,SLS,90,B,NaN,NaN,NaN,Pass,End of Day 1,Pass,NaN,Pass,NaN,Pass,schedule_A,schedule_A,12,5,1,Screen 1,Zone1,continue_button,1334,NaN,NaN,,NaN,0,1,0,NaN,NaN,NaN,NaN,NaN,trial_left,redBox.png,redBox.png,yellowBox.png,al1_con.png,22,11,NaN,NaN,0.85,0.85,1,1,1,1,Volatile,Stable,1.126,1.849,1.483,1.689,expert
55,1671223525579,16/12/2022 20:45:25,1671223527782,0,16/12/2022 20:45:27,109680,37,task-v1fs,repeat-u7ds#1->-repeat-l3h2#1->-repeat-pi7a#1->-repeat-apgu#1,25998812,BLIND,7674790,NaN,complete,NaN,NaN,computer,Desktop or Laptop,Windows 10,Firefox 107.0,1536x864,1536x864,End of Day 1,SLS,90,B,NaN,NaN,NaN,Pass,End of Day 1,Pass,NaN,Pass,NaN,Pass,schedule_A,schedule_A,12,5,2,individual,Zone4,timelimit_screen,999.920000000006,NaN,NaN,,NaN,0,1,0,NaN,NaN,1,NaN,NaN,trial_left,redBox.png,redBox.png,yellowBox.png,al1_con.png,22,11,NaN,NaN,0.85,0.85,1,1,1,1,Volatile,Stable,1.126,1.849,1.483,1.689,expert
56,1671223526548,16/12/2022 20:45:26,1671223528766,0,16/12/2022 20:45:28,109680,37,task-v1fs,repeat-u7ds#1->-repeat-l3h2#1->-repeat-pi7a#1->-repeat-apgu#1,25998812,BLIND,7674790,NaN,complete,NaN,NaN,computer,Desktop or Laptop,Windows 10,Firefox 107.0,1536x864,1536x864,End of Day 1,SLS,90,B,NaN,NaN,NaN,Pass,End of Day 1,Pass,NaN,Pass,NaN,Pass,schedule_A,schedule_A,12,5,3,offer,Zone2,response_button_image,974,NaN,NaN,redBox.png,1,1,0,0,NaN,NaN,NaN,NaN,NaN,trial_left,redBox.png,redBox.png,yellowBox.png,al1_con.png,22,11,NaN,NaN,0.85,0.85,1,1,1,1,Volatile,Stable,1.126,1.849,1.483,1.689,expert
57,1671223528553,16/12/2022 20:45:28,1671223530766,0,16/12/2022 20:45:30,109680,37,task-v1fs,repeat-u7ds#1->-repeat-l3h2#1->-repeat-pi7a#1->-repeat-apgu#1,25998812,BLIND,7674790,NaN,complete,NaN,NaN,computer,Desktop or Laptop,Windows 10,Firefox 107.0,1536x864,1536x864,End of Day 1,SLS,90,B,NaN,NaN,NaN,Pass,End of Day 1,Pass,NaN,Pass,NaN,Pass,schedule_A,schedule_A,12,5,4,feedback_l,Zone7,timelimit_screen,1999.86,NaN,NaN,,NaN,0,1,0,NaN,NaN,1,NaN,NaN,trial_left,redBox.png,redBox.png,yellowBox.png,al1_con.png,22,11,NaN,NaN,0.85,0.85,1,1,1,1,Volatile,Stable,1.126,1.849,1.483,1.689,expert
58,1671223528704,16/12/2022 20:45:28,1671223530915,0,16/12/2022 20:45:30,109680,37,task-v1fs,repeat-u7ds#1->-repeat-l3h2#1->-repeat-pi7a#1->-repeat-apgu#1,25998812,BLIND,7674790,NaN,complete,NaN,NaN,computer,Desktop or Laptop,Windows 10,Firefox 107.0,1536x864,1536x864,End of Day 1,SLS,90,B,NaN,NaN,NaN,Pass,End of Day 1,Pass,NaN,Pass,NaN,Pass,schedule_A,schedule_A,12,5,6,end,Zone1,timelimit_screen,150,NaN,NaN,,NaN,0,1,0,NaN,NaN,1,NaN,NaN,trial_left,redBox.png,redBox.png,yellowBox.png,al1_con.png,22,11,NaN,NaN,0.85,0.85,1,1,1,1,Volatile,Stable,1.126,1.849,1.483,1.689,expert
59,1671223529332,16/12/2022 20:45:29,1671223531533,0,16/12/2022 20:45:31,109680,37,task-v1fs,repeat-u7ds#1->-repeat-l3h2#1->-repeat-pi7a#1->-repeat-apgu#1,25998812,BLIND,7674790,NaN,complete,NaN,NaN,computer,Desktop or Laptop,Windows 10,Firefox 107.0,1536x864,1536x864,End of Day 1,SLS,90,B,NaN,NaN,NaN,Pass,End of Day 1,Pass,NaN,Pass,NaN,Pass,schedule_A,schedule_A,13,7,1,Screen 1,Zone1,continue_button,598,NaN,NaN,,NaN,0,1,0,NaN,NaN,NaN,NaN,NaN,trial_right,redBox.png,yellowBox.png,redBox.png,al1_con.png,23,12,NaN,NaN,0.85,0.85,1,1,1,0,Volatile,Stable,2.361,0.992,0.5,1.975,expert
60,1671223530326,16/12/2022 20:45:30,1671223532533,0,16/12/2022 20:45:32,109680,37,task-v1fs,repeat-u7ds#1->-repeat-l3h2#1->-repeat-pi7a#1->-repeat-apgu#1,25998812,BLIND,7674790,NaN,complete,NaN,NaN,computer,Desktop or Laptop,Windows 10,Firefox 107.0,1536x864,1536x864,End of Day 1,SLS,90,B,NaN,NaN,NaN,Pass,End of Day 1,Pass,NaN,Pass,NaN,Pass,schedule_A,schedule_A,13,7,2,individual,Zone4,timelimit_screen,999.980000000003,NaN,NaN,,NaN,0,1,0,NaN,NaN,1,NaN,NaN,trial_right,redBox.png,yellowBox.png,redBox.png,al1_con.png,23,12,NaN,NaN,0.85,0.85,1,1,1,0,Volatile,Stable,2.361,0.992,0.5,1.975,expert
61,1671223530915,16/12/2022 20:45:30,1671223533119,0,16/12/2022 20:45:33,109680,37,task-v1fs,repeat-u7ds#1->-repeat-l3h2#1->-repeat-pi7a#1->-repeat-apgu#1,25998812,BLIND,7674790,NaN,complete,NaN,NaN,computer,Desktop or Laptop,Windows 10,Firefox 107.0,1536x864,1536x864,End of Day 1,SLS,90,B,NaN,NaN,NaN,Pass,End of Day 1,Pass,NaN,Pass,NaN,Pass,schedule_A,schedule_A,13,7,3,offer,Zone3,response_button_image,580,NaN,NaN,redBox.png,1,1,0,0,NaN,NaN,NaN,NaN,NaN,trial_right,redBox.png,yellowBox.png,redBox.png,al1_con.png,23,12,NaN,NaN,0.85,0.85,1,1,1,0,Volatile,Stable,2.361,0.992,0.5,1.975,expert
62,1671223532897,16/12/2022 20:45:32,1671223535113,0,16/12/2022 20:45:35,109680,37,task-v1fs,repeat-u7ds#1->-repeat-l3h2#1->-repeat-pi7a#1->-repeat-apgu#1,25998812,BLIND,7674790,NaN,complete,NaN,NaN,computer,Desktop or Laptop,Windows 10,Firefox 107.0,1536x864,1536x864,End of Day 1,SLS,90,B,NaN,NaN,NaN,Pass,End of Day 1,Pass,NaN,Pass,NaN,Pass,schedule_A,schedule_A,13,7,5,feedback_r,Zone7,timelimit_screen,1999.86,NaN,NaN,,NaN,0,1,0,NaN,NaN,1,NaN,NaN,trial_right,redBox.png,yellowBox.png,redBox.png,al1_con.png,23,12,NaN,NaN,0.85,0.85,1,1,1,0,Volatile,Stable,2.361,0.992,0.5,1.975,expert
63,1671223533061,16/12/2022 20:45:33,1671223535264,0,16/12/2022 20:45:35,109680,37,task-v1fs,repeat-u7ds#1->-repeat-l3h2#1->-repeat-pi7a#1->-repeat-apgu#1,25998812,BLIND,7674790,NaN,complete,NaN,NaN,computer,Desktop or Laptop,Windows 10,Firefox 107.0,1536x864,1536x864,End of Day 1,SLS,90,B,NaN,NaN,NaN,Pass,End of Day 1,Pass,NaN,Pass,NaN,Pass,schedule_A,schedule_A,13,7,6,end,Zone1,timelimit_screen,149.979999999996,NaN,NaN,,NaN,0,1,0,NaN,NaN,1,NaN,NaN,trial_right,redBox.png,yellowBox.png,redBox.png,al1_con.png,23,12,NaN,NaN,0.85,0.85,1,1,1,0,Volatile,Stable,2.361,0.992,0.5,1.975,expert
64,1671223533613,16/12/2022 20:45:33,1671223535832,0,16/12/2022 20:45:35,109680,37,task-v1fs,repeat-u7ds#1->-repeat-l3h2#1->-repeat-pi7a#1->-repeat-apgu#1,25998812,BLIND,7674790,NaN,complete,NaN,NaN,computer,Desktop or Laptop,Windows 10,Firefox 107.0,1536x864,1536x864,End of Day 1,SLS,90,B,NaN,NaN,NaN,Pass,End of Day 1,Pass,NaN,Pass,NaN,Pass,schedule_A,schedule_A,14,8,1,Screen 1,Zone1,continue_button,554,NaN,NaN,,NaN,0,1,0,NaN,NaN,NaN,NaN,NaN,trial_right,redBox.png,redBox.png,yellowBox.png,al1_con.png,24,13,NaN,NaN,0.85,0.85,1,0,0,1,Volatile,Stable,1.05,1.95,1.319,1.487,expert
65,1671223534632,16/12/2022 20:45:34,1671223536832,0,16/12/2022 20:45:36,109680,37,task-v1fs,repeat-u7ds#1->-repeat-l3h2#1->-repeat-pi7a#1->-repeat-apgu#1,25998812,BLIND,7674790,NaN,complete,NaN,NaN,computer,Desktop or Laptop,Windows 10,Firefox 107.0,1536x864,1536x864,End of Day 1,SLS,90,B,NaN,NaN,NaN,Pass,End of Day 1,Pass,NaN,Pass,NaN,Pass,schedule_A,schedule_A,14,8,2,individual,Zone4,timelimit_screen,999.940000000002,NaN,NaN,,NaN,0,1,0,NaN,NaN,1,NaN,NaN,trial_right,redBox.png,redBox.png,yellowBox.png,al1_con.png,24,13,NaN,NaN,0.85,0.85,1,0,0,1,Volatile,Stable,1.05,1.95,1.319,1.487,expert
66,1671223535615,16/12/2022 20:45:35,1671223537833,0,16/12/2022 20:45:37,109680,37,task-v1fs,repeat-u7ds#1->-repeat-l3h2#1->-repeat-pi7a#1->-repeat-apgu#1,25998812,BLIND,7674790,NaN,complete,NaN,NaN,computer,Desktop or Laptop,Windows 10,Firefox 107.0,1536x864,1536x864,End of Day 1,SLS,90,B,NaN,NaN,NaN,Pass,End of Day 1,Pass,NaN,Pass,NaN,Pass,schedule_A,schedule_A,14,8,3,offer,Zone3,response_button_image,992,NaN,NaN,yellowBox.png,1,0,1,0,NaN,NaN,NaN,NaN,NaN,trial_right,redBox.png,redBox.png,yellowBox.png,al1_con.png,24,13,NaN,NaN,0.85,0.85,1,0,0,1,Volatile,Stable,1.05,1.95,1.319,1.487,expert
67,1671223537622,16/12/2022 20:45:37,1671223539831,0,16/12/2022 20:45:39,109680,37,task-v1fs,repeat-u7ds#1->-repeat-l3h2#1->-repeat-pi7a#1->-repeat-apgu#1,25998812,BLIND,7674790,NaN,complete,NaN,NaN,computer,Desktop or Laptop,Windows 10,Firefox 107.0,1536x864,1536x864,End of Day 1,SLS,90,B,NaN,NaN,NaN,Pass,End of Day 1,Pass,NaN,Pass,NaN,Pass,schedule_A,schedule_A,14,8,5,feedback_r,Zone7,timelimit_screen,1999.86,NaN,NaN,,NaN,0,1,0,NaN,NaN,1,NaN,NaN,trial_right,redBox.png,redBox.png,yellowBox.png,al1_con.png,24,13,NaN,NaN,0.85,0.85,1,0,0,1,Volatile,Stable,1.05,1.95,1.319,1.487,expert
68,1671223537771,16/12/2022 20:45:37,1671223539981,0,16/12/2022 20:45:39,109680,37,task-v1fs,repeat-u7ds#1->-repeat-l3h2#1->-repeat-pi7a#1->-repeat-apgu#1,25998812,BLIND,7674790,NaN,complete,NaN,NaN,computer,Desktop or Laptop,Windows 10,Firefox 107.0,1536x864,1536x864,End of Day 1,SLS,90,B,NaN,NaN,NaN,Pass,End of Day 1,Pass,NaN,Pass,NaN,Pass,schedule_A,schedule_A,14,8,6,end,Zone1,timelimit_screen,149.979999999996,NaN,NaN,,NaN,0,1,0,NaN,NaN,1,NaN,NaN,trial_right,redBox.png,redBox.png,yellowBox.png,al1_con.png,24,13,NaN,NaN,0.85,0.85,1,0,0,1,Volatile,Stable,1.05,1.95,1.319,1.487,expert
69,1671223538281,16/12/2022 20:45:38,1671223540500,0,16/12/2022 20:45:40,109680,37,task-v1fs,repeat-u7ds#1->-repeat-l3h2#1->-repeat-pi7a#1->-repeat-apgu#1,25998812,BLIND,7674790,NaN,complete,NaN,NaN,computer,Desktop or Laptop,Windows 10,Firefox 107.0,1536x864,1536x864,End of Day 1,SLS,90,B,NaN,NaN,NaN,Pass,End of Day 1,Pass,NaN,Pass,NaN,Pass,schedule_A,schedule_A,15,9,1,Screen 1,Zone1,continue_button,493,NaN,NaN,,NaN,0,1,0,NaN,NaN,NaN,NaN,NaN,trial_right,redBox.png,yellowBox.png,redBox.png,al1_con.png,25,14,NaN,NaN,0.85,0.85,1,1,1,0,Volatile,Stable,3.395,0.84,0.803,1.252,expert
70,1671223539282,16/12/2022 20:45:39,1671223541497,0,16/12/2022 20:45:41,109680,37,task-v1fs,repeat-u7ds#1->-repeat-l3h2#1->-repeat-pi7a#1->-repeat-apgu#1,25998812,BLIND,7674790,NaN,complete,NaN,NaN,computer,Desktop or Laptop,Windows 10,Firefox 107.0,1536x864,1536x864,End of Day 1,SLS,90,B,NaN,NaN,NaN,Pass,End of Day 1,Pass,NaN,Pass,NaN,Pass,schedule_A,schedule_A,15,9,2,individual,Zone4,timelimit_screen,999.87999999999,NaN,NaN,,NaN,0,1,0,NaN,NaN,1,NaN,NaN,trial_right,redBox.png,yellowBox.png,redBox.png,al1_con.png,25,14,NaN,NaN,0.85,0.85,1,1,1,0,Volatile,Stable,3.395,0.84,0.803,1.252,expert
71,1671223539819,16/12/2022 20:45:39,1671223542034,0,16/12/2022 20:45:42,109680,37,task-v1fs,repeat-u7ds#1->-repeat-l3h2#1->-repeat-pi7a#1->-repeat-apgu#1,25998812,BLIND,7674790,NaN,complete,NaN,NaN,computer,Desktop or Laptop,Windows 10,Firefox 107.0,1536x864,1536x864,End of Day 1,SLS,90,B,NaN,NaN,NaN,Pass,End of Day 1,Pass,NaN,Pass,NaN,Pass,schedule_A,schedule_A,15,9,3,offer,Zone3,response_button_image,527,NaN,NaN,redBox.png,1,1,0,0,NaN,NaN,NaN,NaN,NaN,trial_right,redBox.png,yellowBox.png,redBox.png,al1_con.png,25,14,NaN,NaN,0.85,0.85,1,1,1,0,Volatile,Stable,3.395,0.84,0.803,1.252,expert
72,1671223541845,16/12/2022 20:45:41,1671223544032,0,16/12/2022 20:45:44,109680,37,task-v1fs,repeat-u7ds#1->-repeat-l3h2#1->-repeat-pi7a#1->-repeat-apgu#1,25998812,BLIND,7674790,NaN,complete,NaN,NaN,computer,Desktop or Laptop,Windows 10,Firefox 107.0,1536x864,1536x864,End of Day 1,SLS,90,B,NaN,NaN,NaN,Pass,End of Day 1,Pass,NaN,Pass,NaN,Pass,schedule_A,schedule_A,15,9,5,feedback_r,Zone7,timelimit_screen,1999.88,NaN,NaN,,NaN,0,1,0,NaN,NaN,1,NaN,NaN,trial_right,redBox.png,yellowBox.png,redBox.png,al1_con.png,25,14,NaN,NaN,0.85,0.85,1,1,1,0,Volatile,Stable,3.395,0.84,0.803,1.252,expert
73,1671223541967,16/12/2022 20:45:41,1671223544182,0,16/12/2022 20:45:44,109680,37,task-v1fs,repeat-u7ds#1->-repeat-l3h2#1->-repeat-pi7a#1->-repeat-apgu#1,25998812,BLIND,7674790,NaN,complete,NaN,NaN,computer,Desktop or Laptop,Windows 10,Firefox 107.0,1536x864,1536x864,End of Day 1,SLS,90,B,NaN,NaN,NaN,Pass,End of Day 1,Pass,NaN,Pass,NaN,Pass,schedule_A,schedule_A,15,9,6,end,Zone1,timelimit_screen,149.979999999996,NaN,NaN,,NaN,0,1,0,NaN,NaN,1,NaN,NaN,trial_right,redBox.png,yellowBox.png,redBox.png,al1_con.png,25,14,NaN,NaN,0.85,0.85,1,1,1,0,Volatile,Stable,3.395,0.84,0.803,1.252,expert
74,1671223542535,16/12/2022 20:45:42,1671223544753,0,16/12/2022 20:45:44,109680,37,task-v1fs,repeat-u7ds#1->-repeat-l3h2#1->-repeat-pi7a#1->-repeat-apgu#1,25998812,BLIND,7674790,NaN,complete,NaN,NaN,computer,Desktop or Laptop,Windows 10,Firefox 107.0,1536x864,1536x864,End of Day 1,SLS,90,B,NaN,NaN,NaN,Pass,End of Day 1,Pass,NaN,Pass,NaN,Pass,schedule_A,schedule_A,16,10,1,Screen 1,Zone1,continue_button,546,NaN,NaN,,NaN,0,1,0,NaN,NaN,NaN,NaN,NaN,trial_right,yellowBox.png,redBox.png,yellowBox.png,al1_con.png,26,15,NaN,NaN,0.85,0.85,0,1,0,1,Volatile,Stable,2.689,1.067,1.697,2.731,expert
75,1671223543530,16/12/2022 20:45:43,1671223545748,0,16/12/2022 20:45:45,109680,37,task-v1fs,repeat-u7ds#1->-repeat-l3h2#1->-repeat-pi7a#1->-repeat-apgu#1,25998812,BLIND,7674790,NaN,complete,NaN,NaN,computer,Desktop or Laptop,Windows 10,Firefox 107.0,1536x864,1536x864,End of Day 1,SLS,90,B,NaN,NaN,NaN,Pass,End of Day 1,Pass,NaN,Pass,NaN,Pass,schedule_A,schedule_A,16,10,2,individual,Zone4,timelimit_screen,999.880000000005,NaN,NaN,,NaN,0,1,0,NaN,NaN,1,NaN,NaN,trial_right,yellowBox.png,redBox.png,yellowBox.png,al1_con.png,26,15,NaN,NaN,0.85,0.85,0,1,0,1,Volatile,Stable,2.689,1.067,1.697,2.731,expert
76,1671223543747,16/12/2022 20:45:43,1671223545967,0,16/12/2022 20:45:45,109680,37,task-v1fs,repeat-u7ds#1->-repeat-l3h2#1->-repeat-pi7a#1->-repeat-apgu#1,25998812,BLIND,7674790,NaN,complete,NaN,NaN,computer,Desktop or Laptop,Windows 10,Firefox 107.0,1536x864,1536x864,End of Day 1,SLS,90,B,NaN,NaN,NaN,Pass,End of Day 1,Pass,NaN,Pass,NaN,Pass,schedule_A,schedule_A,16,10,3,offer,Zone2,response_button_image,210,NaN,NaN,redBox.png,1,0,1,0,NaN,NaN,NaN,NaN,NaN,trial_right,yellowBox.png,redBox.png,yellowBox.png,al1_con.png,26,15,NaN,NaN,0.85,0.85,0,1,0,1,Volatile,Stable,2.689,1.067,1.697,2.731,expert
77,1671223545771,16/12/2022 20:45:45,1671223547965,0,16/12/2022 20:45:47,109680,37,task-v1fs,repeat-u7ds#1->-repeat-l3h2#1->-repeat-pi7a#1->-repeat-apgu#1,25998812,BLIND,7674790,NaN,complete,NaN,NaN,computer,Desktop or Laptop,Windows 10,Firefox 107.0,1536x864,1536x864,End of Day 1,SLS,90,B,NaN,NaN,NaN,Pass,End of Day 1,Pass,NaN,Pass,NaN,Pass,schedule_A,schedule_A,16,10,4,feedback_l,Zone7,timelimit_screen,1999.76000000001,NaN,NaN,,NaN,0,1,0,NaN,NaN,1,NaN,NaN,trial_right,yellowBox.png,redBox.png,yellowBox.png,al1_con.png,26,15,NaN,NaN,0.85,0.85,0,1,0,1,Volatile,Stable,2.689,1.067,1.697,2.731,expert
78,1671223545896,16/12/2022 20:45:45,1671223548112,0,16/12/2022 20:45:48,109680,37,task-v1fs,repeat-u7ds#1->-repeat-l3h2#1->-repeat-pi7a#1->-repeat-apgu#1,25998812,BLIND,7674790,NaN,complete,NaN,NaN,computer,Desktop or Laptop,Windows 10,Firefox 107.0,1536x864,1536x864,End of Day 1,SLS,90,B,NaN,NaN,NaN,Pass,End of Day 1,Pass,NaN,Pass,NaN,Pass,schedule_A,schedule_A,16,10,6,end,Zone1,timelimit_screen,150,NaN,NaN,,NaN,0,1,0,NaN,NaN,1,NaN,NaN,trial_right,yellowBox.png,redBox.png,yellowBox.png,al1_con.png,26,15,NaN,NaN,0.85,0.85,0,1,0,1,Volatile,Stable,2.689,1.067,1.697,2.731,expert
79,1671223546024,16/12/2022 20:45:46,1671223548229,0,16/12/2022 20:45:48,109680,37,task-v1fs,repeat-u7ds#1->-repeat-l3h2#1->-repeat-pi7a#1->-repeat-apgu#1,25998812,BLIND,7674790,NaN,complete,NaN,NaN,computer,Desktop or Laptop,Windows 10,Firefox 107.0,1536x864,1536x864,End of Day 1,SLS,90,B,NaN,NaN,NaN,Pass,End of Day 1,Pass,NaN,Pass,NaN,Pass,schedule_A,schedule_A,17,6,1,Screen 1,Zone1,continue_button,100,NaN,NaN,,NaN,0,1,0,NaN,NaN,NaN,NaN,NaN,trial_left,yellowBox.png,yellowBox.png,redBox.png,al1_con.png,27,16,NaN,NaN,0.15,0.85,0,1,0,0,Volatile,Stable,1.378,0.689,0.878,2.076,expert
80,1671223547035,16/12/2022 20:45:47,1671223549229,0,16/12/2022 20:45:49,109680,37,task-v1fs,repeat-u7ds#1->-repeat-l3h2#1->-repeat-pi7a#1->-repeat-apgu#1,25998812,BLIND,7674790,NaN,complete,NaN,NaN,computer,Desktop or Laptop,Windows 10,Firefox 107.0,1536x864,1536x864,End of Day 1,SLS,90,B,NaN,NaN,NaN,Pass,End of Day 1,Pass,NaN,Pass,NaN,Pass,schedule_A,schedule_A,17,6,2,individual,Zone4,timelimit_screen,999.900000000009,NaN,NaN,,NaN,0,1,0,NaN,NaN,1,NaN,NaN,trial_left,yellowBox.png,yellowBox.png,redBox.png,al1_con.png,27,16,NaN,NaN,0.15,0.85,0,1,0,0,Volatile,Stable,1.378,0.689,0.878,2.076,expert
81,1671223547540,16/12/2022 20:45:47,1671223549758,0,16/12/2022 20:45:49,109680,37,task-v1fs,repeat-u7ds#1->-repeat-l3h2#1->-repeat-pi7a#1->-repeat-apgu#1,25998812,BLIND,7674790,NaN,complete,NaN,NaN,computer,Desktop or Laptop,Windows 10,Firefox 107.0,1536x864,1536x864,End of Day 1,SLS,90,B,NaN,NaN,NaN,Pass,End of Day 1,Pass,NaN,Pass,NaN,Pass,schedule_A,schedule_A,17,6,3,offer,Zone2,response_button_image,520,NaN,NaN,yellowBox.png,1,1,0,0,NaN,NaN,NaN,NaN,NaN,trial_left,yellowBox.png,yellowBox.png,redBox.png,al1_con.png,27,16,NaN,NaN,0.15,0.85,0,1,0,0,Volatile,Stable,1.378,0.689,0.878,2.076,expert
82,1671223549532,16/12/2022 20:45:49,1671223551746,0,16/12/2022 20:45:51,109680,37,task-v1fs,repeat-u7ds#1->-repeat-l3h2#1->-repeat-pi7a#1->-repeat-apgu#1,25998812,BLIND,7674790,NaN,complete,NaN,NaN,computer,Desktop or Laptop,Windows 10,Firefox 107.0,1536x864,1536x864,End of Day 1,SLS,90,B,NaN,NaN,NaN,Pass,End of Day 1,Pass,NaN,Pass,NaN,Pass,schedule_A,schedule_A,17,6,4,feedback_l,Zone7,timelimit_screen,1999.87999999999,NaN,NaN,,NaN,0,1,0,NaN,NaN,1,NaN,NaN,trial_left,yellowBox.png,yellowBox.png,redBox.png,al1_con.png,27,16,NaN,NaN,0.15,0.85,0,1,0,0,Volatile,Stable,1.378,0.689,0.878,2.076,expert
83,1671223549694,16/12/2022 20:45:49,1671223551896,0,16/12/2022 20:45:51,109680,37,task-v1fs,repeat-u7ds#1->-repeat-l3h2#1->-repeat-pi7a#1->-repeat-apgu#1,25998812,BLIND,7674790,NaN,complete,NaN,NaN,computer,Desktop or Laptop,Windows 10,Firefox 107.0,1536x864,1536x864,End of Day 1,SLS,90,B,NaN,NaN,NaN,Pass,End of Day 1,Pass,NaN,Pass,NaN,Pass,schedule_A,schedule_A,17,6,6,end,Zone1,timelimit_screen,150,NaN,NaN,,NaN,0,1,0,NaN,NaN,1,NaN,NaN,trial_left,yellowBox.png,yellowBox.png,redBox.png,al1_con.png,27,16,NaN,NaN,0.15,0.85,0,1,0,0,Volatile,Stable,1.378,0.689,0.878,2.076,expert
84,1671223549804,16/12/2022 20:45:49,1671223552012,0,16/12/2022 20:45:52,109680,37,task-v1fs,repeat-u7ds#1->-repeat-l3h2#1->-repeat-pi7a#1->-repeat-apgu#1,25998812,BLIND,7674790,NaN,complete,NaN,NaN,computer,Desktop or Laptop,Windows 10,Firefox 107.0,1536x864,1536x864,End of Day 1,SLS,90,B,NaN,NaN,NaN,Pass,End of Day 1,Pass,NaN,Pass,NaN,Pass,schedule_A,schedule_A,18,11,1,Screen 1,Zone1,continue_button,96,NaN,NaN,,NaN,0,1,0,NaN,NaN,NaN,NaN,NaN,trial_right,yellowBox.png,redBox.png,yellowBox.png,al1_con.png,28,17,NaN,NaN,0.15,0.85,0,1,0,1,Volatile,Stable,2.714,0.739,1.975,1.134,expert
85,1671223550806,16/12/2022 20:45:50,1671223553013,0,16/12/2022 20:45:53,109680,37,task-v1fs,repeat-u7ds#1->-repeat-l3h2#1->-repeat-pi7a#1->-repeat-apgu#1,25998812,BLIND,7674790,NaN,complete,NaN,NaN,computer,Desktop or Laptop,Windows 10,Firefox 107.0,1536x864,1536x864,End of Day 1,SLS,90,B,NaN,NaN,NaN,Pass,End of Day 1,Pass,NaN,Pass,NaN,Pass,schedule_A,schedule_A,18,11,2,individual,Zone4,timelimit_screen,999.899999999994,NaN,NaN,,NaN,0,1,0,NaN,NaN,1,NaN,NaN,trial_right,yellowBox.png,redBox.png,yellowBox.png,al1_con.png,28,17,NaN,NaN,0.15,0.85,0,1,0,1,Volatile,Stable,2.714,0.739,1.975,1.134,expert
86,1671223551316,16/12/2022 20:45:51,1671223553524,0,16/12/2022 20:45:53,109680,37,task-v1fs,repeat-u7ds#1->-repeat-l3h2#1->-repeat-pi7a#1->-repeat-apgu#1,25998812,BLIND,7674790,NaN,complete,NaN,NaN,computer,Desktop or Laptop,Windows 10,Firefox 107.0,1536x864,1536x864,End of Day 1,SLS,90,B,NaN,NaN,NaN,Pass,End of Day 1,Pass,NaN,Pass,NaN,Pass,schedule_A,schedule_A,18,11,3,offer,Zone3,response_button_image,504,NaN,NaN,yellowBox.png,1,1,0,0,NaN,NaN,NaN,NaN,NaN,trial_right,yellowBox.png,redBox.png,yellowBox.png,al1_con.png,28,17,NaN,NaN,0.15,0.85,0,1,0,1,Volatile,Stable,2.714,0.739,1.975,1.134,expert
87,1671223553306,16/12/2022 20:45:53,1671223555511,0,16/12/2022 20:45:55,109680,37,task-v1fs,repeat-u7ds#1->-repeat-l3h2#1->-repeat-pi7a#1->-repeat-apgu#1,25998812,BLIND,7674790,NaN,complete,NaN,NaN,computer,Desktop or Laptop,Windows 10,Firefox 107.0,1536x864,1536x864,End of Day 1,SLS,90,B,NaN,NaN,NaN,Pass,End of Day 1,Pass,NaN,Pass,NaN,Pass,schedule_A,schedule_A,18,11,5,feedback_r,Zone7,timelimit_screen,1999.84,NaN,NaN,,NaN,0,1,0,NaN,NaN,1,NaN,NaN,trial_right,yellowBox.png,redBox.png,yellowBox.png,al1_con.png,28,17,NaN,NaN,0.15,0.85,0,1,0,1,Volatile,Stable,2.714,0.739,1.975,1.134,expert
88,1671223553456,16/12/2022 20:45:53,1671223555663,0,16/12/2022 20:45:55,109680,37,task-v1fs,repeat-u7ds#1->-repeat-l3h2#1->-repeat-pi7a#1->-repeat-apgu#1,25998812,BLIND,7674790,NaN,complete,NaN,NaN,computer,Desktop or Laptop,Windows 10,Firefox 107.0,1536x864,1536x864,End of Day 1,SLS,90,B,NaN,NaN,NaN,Pass,End of Day 1,Pass,NaN,Pass,NaN,Pass,schedule_A,schedule_A,18,11,6,end,Zone1,timelimit_screen,150,NaN,NaN,,NaN,0,1,0,NaN,NaN,1,NaN,NaN,trial_right,yellowBox.png,redBox.png,yellowBox.png,al1_con.png,28,17,NaN,NaN,0.15,0.85,0,1,0,1,Volatile,Stable,2.714,0.739,1.975,1.134,expert
89,1671223553629,16/12/2022 20:45:53,1671223555847,0,16/12/2022 20:45:55,109680,37,task-v1fs,repeat-u7ds#1->-repeat-l3h2#1->-repeat-pi7a#1->-repeat-apgu#1,25998812,BLIND,7674790,NaN,complete,NaN,NaN,computer,Desktop or Laptop,Windows 10,Firefox 107.0,1536x864,1536x864,End of Day 1,SLS,90,B,NaN,NaN,NaN,Pass,End of Day 1,Pass,NaN,Pass,NaN,Pass,schedule_A,schedule_A,19,7,1,Screen 1,Zone1,continue_button,171,NaN,NaN,,NaN,0,1,0,NaN,NaN,NaN,NaN,NaN,trial_left,yellowBox.png,yellowBox.png,redBox.png,al1_con.png,29,18,NaN,NaN,0.15,0.85,0,1,0,0,Volatile,Stable,3.874,0.676,1.496,1.639,expert
90,1671223554636,16/12/2022 20:45:54,1671223556845,0,16/12/2022 20:45:56,109680,37,task-v1fs,repeat-u7ds#1->-repeat-l3h2#1->-repeat-pi7a#1->-repeat-apgu#1,25998812,BLIND,7674790,NaN,complete,NaN,NaN,computer,Desktop or Laptop,Windows 10,Firefox 107.0,1536x864,1536x864,End of Day 1,SLS,90,B,NaN,NaN,NaN,Pass,End of Day 1,Pass,NaN,Pass,NaN,Pass,schedule_A,schedule_A,19,7,2,individual,Zone4,timelimit_screen,999.880000000005,NaN,NaN,,NaN,0,1,0,NaN,NaN,1,NaN,NaN,trial_left,yellowBox.png,yellowBox.png,redBox.png,al1_con.png,29,18,NaN,NaN,0.15,0.85,0,1,0,0,Volatile,Stable,3.874,0.676,1.496,1.639,expert
91,1671223555140,16/12/2022 20:45:55,1671223557347,0,16/12/2022 20:45:57,109680,37,task-v1fs,repeat-u7ds#1->-repeat-l3h2#1->-repeat-pi7a#1->-repeat-apgu#1,25998812,BLIND,7674790,NaN,complete,NaN,NaN,computer,Desktop or Laptop,Windows 10,Firefox 107.0,1536x864,1536x864,End of Day 1,SLS,90,B,NaN,NaN,NaN,Pass,End of Day 1,Pass,NaN,Pass,NaN,Pass,schedule_A,schedule_A,19,7,3,offer,Zone2,response_button_image,495,NaN,NaN,yellowBox.png,1,1,0,0,NaN,NaN,NaN,NaN,NaN,trial_left,yellowBox.png,yellowBox.png,redBox.png,al1_con.png,29,18,NaN,NaN,0.15,0.85,0,1,0,0,Volatile,Stable,3.874,0.676,1.496,1.639,expert
92,1671223557130,16/12/2022 20:45:57,1671223559346,0,16/12/2022 20:45:59,109680,37,task-v1fs,repeat-u7ds#1->-repeat-l3h2#1->-repeat-pi7a#1->-repeat-apgu#1,25998812,BLIND,7674790,NaN,complete,NaN,NaN,computer,Desktop or Laptop,Windows 10,Firefox 107.0,1536x864,1536x864,End of Day 1,SLS,90,B,NaN,NaN,NaN,Pass,End of Day 1,Pass,NaN,Pass,NaN,Pass,schedule_A,schedule_A,19,7,4,feedback_l,Zone7,timelimit_screen,1999.90000000001,NaN,NaN,,NaN,0,1,0,NaN,NaN,1,NaN,NaN,trial_left,yellowBox.png,yellowBox.png,redBox.png,al1_con.png,29,18,NaN,NaN,0.15,0.85,0,1,0,0,Volatile,Stable,3.874,0.676,1.496,1.639,expert
93,1671223557279,16/12/2022 20:45:57,1671223559495,0,16/12/2022 20:45:59,109680,37,task-v1fs,repeat-u7ds#1->-repeat-l3h2#1->-repeat-pi7a#1->-repeat-apgu#1,25998812,BLIND,7674790,NaN,complete,NaN,NaN,computer,Desktop or Laptop,Windows 10,Firefox 107.0,1536x864,1536x864,End of Day 1,SLS,90,B,NaN,NaN,NaN,Pass,End of Day 1,Pass,NaN,Pass,NaN,Pass,schedule_A,schedule_A,19,7,6,end,Zone1,timelimit_screen,149.940000000002,NaN,NaN,,NaN,0,1,0,NaN,NaN,1,NaN,NaN,trial_left,yellowBox.png,yellowBox.png,redBox.png,al1_con.png,29,18,NaN,NaN,0.15,0.85,0,1,0,0,Volatile,Stable,3.874,0.676,1.496,1.639,expert
94,1671223557831,16/12/2022 20:45:57,1671223560042,0,16/12/2022 20:46:00,109680,37,task-v1fs,repeat-u7ds#1->-repeat-l3h2#1->-repeat-pi7a#1->-repeat-apgu#1,25998812,BLIND,7674790,NaN,complete,NaN,NaN,computer,Desktop or Laptop,Windows 10,Firefox 107.0,1536x864,1536x864,End of Day 1,SLS,90,B,NaN,NaN,NaN,Pass,End of Day 1,Pass,NaN,Pass,NaN,Pass,schedule_A,schedule_A,20,12,1,Screen 1,Zone1,continue_button,528,NaN,NaN,,NaN,0,1,0,NaN,NaN,NaN,NaN,NaN,trial_right,yellowBox.png,yellowBox.png,redBox.png,al1_con.png,30,19,NaN,NaN,0.15,0.85,0,0,1,0,Volatile,Stable,1.252,1.193,0.853,2.681,expert
95,1671223558828,16/12/2022 20:45:58,1671223561029,0,16/12/2022 20:46:01,109680,37,task-v1fs,repeat-u7ds#1->-repeat-l3h2#1->-repeat-pi7a#1->-repeat-apgu#1,25998812,BLIND,7674790,NaN,complete,NaN,NaN,computer,Desktop or Laptop,Windows 10,Firefox 107.0,1536x864,1536x864,End of Day 1,SLS,90,B,NaN,NaN,NaN,Pass,End of Day 1,Pass,NaN,Pass,NaN,Pass,schedule_A,schedule_A,20,12,2,individual,Zone4,timelimit_screen,999.960000000006,NaN,NaN,,NaN,0,1,0,NaN,NaN,1,NaN,NaN,trial_right,yellowBox.png,yellowBox.png,redBox.png,al1_con.png,30,19,NaN,NaN,0.15,0.85,0,0,1,0,Volatile,Stable,1.252,1.193,0.853,2.681,expert
96,1671223559460,16/12/2022 20:45:59,1671223561680,0,16/12/2022 20:46:01,109680,37,task-v1fs,repeat-u7ds#1->-repeat-l3h2#1->-repeat-pi7a#1->-repeat-apgu#1,25998812,BLIND,7674790,NaN,complete,NaN,NaN,computer,Desktop or Laptop,Windows 10,Firefox 107.0,1536x864,1536x864,End of Day 1,SLS,90,B,NaN,NaN,NaN,Pass,End of Day 1,Pass,NaN,Pass,NaN,Pass,schedule_A,schedule_A,20,12,3,offer,Zone2,response_button_image,641,NaN,NaN,yellowBox.png,1,1,0,0,NaN,NaN,NaN,NaN,NaN,trial_right,yellowBox.png,yellowBox.png,redBox.png,al1_con.png,30,19,NaN,NaN,0.15,0.85,0,0,1,0,Volatile,Stable,1.252,1.193,0.853,2.681,expert
97,1671223561464,16/12/2022 20:46:01,1671223563679,0,16/12/2022 20:46:03,109680,37,task-v1fs,repeat-u7ds#1->-repeat-l3h2#1->-repeat-pi7a#1->-repeat-apgu#1,25998812,BLIND,7674790,NaN,complete,NaN,NaN,computer,Desktop or Laptop,Windows 10,Firefox 107.0,1536x864,1536x864,End of Day 1,SLS,90,B,NaN,NaN,NaN,Pass,End of Day 1,Pass,NaN,Pass,NaN,Pass,schedule_A,schedule_A,20,12,4,feedback_l,Zone7,timelimit_screen,1999.87999999999,NaN,NaN,,NaN,0,1,0,NaN,NaN,1,NaN,NaN,trial_right,yellowBox.png,yellowBox.png,redBox.png,al1_con.png,30,19,NaN,NaN,0.15,0.85,0,0,1,0,Volatile,Stable,1.252,1.193,0.853,2.681,expert
98,1671223561611,16/12/2022 20:46:01,1671223563829,0,16/12/2022 20:46:03,109680,37,task-v1fs,repeat-u7ds#1->-repeat-l3h2#1->-repeat-pi7a#1->-repeat-apgu#1,25998812,BLIND,7674790,NaN,complete,NaN,NaN,computer,Desktop or Laptop,Windows 10,Firefox 107.0,1536x864,1536x864,End of Day 1,SLS,90,B,NaN,NaN,NaN,Pass,End of Day 1,Pass,NaN,Pass,NaN,Pass,schedule_A,schedule_A,20,12,6,end,Zone1,timelimit_screen,150,NaN,NaN,,NaN,0,1,0,NaN,NaN,1,NaN,NaN,trial_right,yellowBox.png,yellowBox.png,redBox.png,al1_con.png,30,19,NaN,NaN,0.15,0.85,0,0,1,0,Volatile,Stable,1.252,1.193,0.853,2.681,expert
99,1671223562513,16/12/2022 20:46:02,1671223564719,0,16/12/2022 20:46:04,109680,37,task-v1fs,repeat-u7ds#1->-repeat-l3h2#1->-repeat-pi7a#1->-repeat-apgu#1,25998812,BLIND,7674790,NaN,complete,NaN,NaN,computer,Desktop or Laptop,Windows 10,Firefox 107.0,1536x864,1536x864,End of Day 1,SLS,90,B,NaN,NaN,NaN,Pass,End of Day 1,Pass,NaN,Pass,NaN,Pass,schedule_A,schedule_A,21,13,1,Screen 1,Zone1,continue_button,876,NaN,NaN,,NaN,0,1,0,NaN,NaN,NaN,NaN,NaN,trial_right,yellowBox.png,redBox.png,yellowBox.png,al1_con.png,41,20,NaN,NaN,0.15,0.85,0,1,0,1,Volatile,Stable,3.521,1.723,1.37,1.655,expert
100,1671223563517,16/12/2022 20:46:03,1671223565710,0,16/12/2022 20:46:05,109680,37,task-v1fs,repeat-u7ds#1->-repeat-l3h2#1->-repeat-pi7a#1->-repeat-apgu#1,25998812,BLIND,7674790,NaN,complete,NaN,NaN,computer,Desktop or Laptop,Windows 10,Firefox 107.0,1536x864,1536x864,End of Day 1,SLS,90,B,NaN,NaN,NaN,Pass,End of Day 1,Pass,NaN,Pass,NaN,Pass,schedule_A,schedule_A,21,13,2,individual,Zone4,timelimit_screen,999.820000000007,NaN,NaN,,NaN,0,1,0,NaN,NaN,1,NaN,NaN,trial_right,yellowBox.png,redBox.png,yellowBox.png,al1_con.png,41,20,NaN,NaN,0.15,0.85,0,1,0,1,Volatile,Stable,3.521,1.723,1.37,1.655,expert
101,1671223563643,16/12/2022 20:46:03,1671223565862,0,16/12/2022 20:46:05,109680,37,task-v1fs,repeat-u7ds#1->-repeat-l3h2#1->-repeat-pi7a#1->-repeat-apgu#1,25998812,BLIND,7674790,NaN,complete,NaN,NaN,computer,Desktop or Laptop,Windows 10,Firefox 107.0,1536x864,1536x864,End of Day 1,SLS,90,B,NaN,NaN,NaN,Pass,End of Day 1,Pass,NaN,Pass,NaN,Pass,schedule_A,schedule_A,21,13,3,offer,Zone3,response_button_image,147,NaN,NaN,yellowBox.png,1,1,0,0,NaN,NaN,NaN,NaN,NaN,trial_right,yellowBox.png,redBox.png,yellowBox.png,al1_con.png,41,20,NaN,NaN,0.15,0.85,0,1,0,1,Volatile,Stable,3.521,1.723,1.37,1.655,expert
102,1671223565640,16/12/2022 20:46:05,1671223567860,0,16/12/2022 20:46:07,109680,37,task-v1fs,repeat-u7ds#1->-repeat-l3h2#1->-repeat-pi7a#1->-repeat-apgu#1,25998812,BLIND,7674790,NaN,complete,NaN,NaN,computer,Desktop or Laptop,Windows 10,Firefox 107.0,1536x864,1536x864,End of Day 1,SLS,90,B,NaN,NaN,NaN,Pass,End of Day 1,Pass,NaN,Pass,NaN,Pass,schedule_A,schedule_A,21,13,5,feedback_r,Zone7,timelimit_screen,1999.89999999999,NaN,NaN,,NaN,0,1,0,NaN,NaN,1,NaN,NaN,trial_right,yellowBox.png,redBox.png,yellowBox.png,al1_con.png,41,20,NaN,NaN,0.15,0.85,0,1,0,1,Volatile,Stable,3.521,1.723,1.37,1.655,expert
103,1671223565794,16/12/2022 20:46:05,1671223568011,0,16/12/2022 20:46:08,109680,37,task-v1fs,repeat-u7ds#1->-repeat-l3h2#1->-repeat-pi7a#1->-repeat-apgu#1,25998812,BLIND,7674790,NaN,complete,NaN,NaN,computer,Desktop or Laptop,Windows 10,Firefox 107.0,1536x864,1536x864,End of Day 1,SLS,90,B,NaN,NaN,NaN,Pass,End of Day 1,Pass,NaN,Pass,NaN,Pass,schedule_A,schedule_A,21,13,6,end,Zone1,timelimit_screen,150,NaN,NaN,,NaN,0,1,0,NaN,NaN,1,NaN,NaN,trial_right,yellowBox.png,redBox.png,yellowBox.png,al1_con.png,41,20,NaN,NaN,0.15,0.85,0,1,0,1,Volatile,Stable,3.521,1.723,1.37,1.655,expert
104,1671223566057,16/12/2022 20:46:06,1671223568269,0,16/12/2022 20:46:08,109680,37,task-v1fs,repeat-u7ds#1->-repeat-l3h2#1->-repeat-pi7a#1->-repeat-apgu#1,25998812,BLIND,7674790,NaN,complete,NaN,NaN,computer,Desktop or Laptop,Windows 10,Firefox 107.0,1536x864,1536x864,End of Day 1,SLS,90,B,NaN,NaN,NaN,Pass,End of Day 1,Pass,NaN,Pass,NaN,Pass,schedule_A,schedule_A,22,14,1,Screen 1,Zone1,continue_button,246,NaN,NaN,,NaN,0,1,0,NaN,NaN,NaN,NaN,NaN,trial_right,redBox.png,yellowBox.png,redBox.png,al1_con.png,42,21,NaN,NaN,0.85,0.85,1,1,1,0,Stable,Stable,2.336,0.651,1.685,2.882,expert
105,1671223567060,16/12/2022 20:46:07,1671223569261,0,16/12/2022 20:46:09,109680,37,task-v1fs,repeat-u7ds#1->-repeat-l3h2#1->-repeat-pi7a#1->-repeat-apgu#1,25998812,BLIND,7674790,NaN,complete,NaN,NaN,computer,Desktop or Laptop,Windows 10,Firefox 107.0,1536x864,1536x864,End of Day 1,SLS,90,B,NaN,NaN,NaN,Pass,End of Day 1,Pass,NaN,Pass,NaN,Pass,schedule_A,schedule_A,22,14,2,individual,Zone4,timelimit_screen,999.840000000011,NaN,NaN,,NaN,0,1,0,NaN,NaN,1,NaN,NaN,trial_right,redBox.png,yellowBox.png,redBox.png,al1_con.png,42,21,NaN,NaN,0.85,0.85,1,1,1,0,Stable,Stable,2.336,0.651,1.685,2.882,expert
106,1671223567615,16/12/2022 20:46:07,1671223569822,0,16/12/2022 20:46:09,109680,37,task-v1fs,repeat-u7ds#1->-repeat-l3h2#1->-repeat-pi7a#1->-repeat-apgu#1,25998812,BLIND,7674790,NaN,complete,NaN,NaN,computer,Desktop or Laptop,Windows 10,Firefox 107.0,1536x864,1536x864,End of Day 1,SLS,90,B,NaN,NaN,NaN,Pass,End of Day 1,Pass,NaN,Pass,NaN,Pass,schedule_A,schedule_A,22,14,3,offer,Zone2,response_button_image,552,NaN,NaN,yellowBox.png,1,0,1,0,NaN,NaN,NaN,NaN,NaN,trial_right,redBox.png,yellowBox.png,redBox.png,al1_con.png,42,21,NaN,NaN,0.85,0.85,1,1,1,0,Stable,Stable,2.336,0.651,1.685,2.882,expert
107,1671223569591,16/12/2022 20:46:09,1671223571809,0,16/12/2022 20:46:11,109680,37,task-v1fs,repeat-u7ds#1->-repeat-l3h2#1->-repeat-pi7a#1->-repeat-apgu#1,25998812,BLIND,7674790,NaN,complete,NaN,NaN,computer,Desktop or Laptop,Windows 10,Firefox 107.0,1536x864,1536x864,End of Day 1,SLS,90,B,NaN,NaN,NaN,Pass,End of Day 1,Pass,NaN,Pass,NaN,Pass,schedule_A,schedule_A,22,14,4,feedback_l,Zone7,timelimit_screen,1999.8,NaN,NaN,,NaN,0,1,0,NaN,NaN,1,NaN,NaN,trial_right,redBox.png,yellowBox.png,redBox.png,al1_con.png,42,21,NaN,NaN,0.85,0.85,1,1,1,0,Stable,Stable,2.336,0.651,1.685,2.882,expert
108,1671223569748,16/12/2022 20:46:09,1671223571961,0,16/12/2022 20:46:11,109680,37,task-v1fs,repeat-u7ds#1->-repeat-l3h2#1->-repeat-pi7a#1->-repeat-apgu#1,25998812,BLIND,7674790,NaN,complete,NaN,NaN,computer,Desktop or Laptop,Windows 10,Firefox 107.0,1536x864,1536x864,End of Day 1,SLS,90,B,NaN,NaN,NaN,Pass,End of Day 1,Pass,NaN,Pass,NaN,Pass,schedule_A,schedule_A,22,14,6,end,Zone1,timelimit_screen,150,NaN,NaN,,NaN,0,1,0,NaN,NaN,1,NaN,NaN,trial_right,redBox.png,yellowBox.png,redBox.png,al1_con.png,42,21,NaN,NaN,0.85,0.85,1,1,1,0,Stable,Stable,2.336,0.651,1.685,2.882,expert
109,1671223570252,16/12/2022 20:46:10,1671223572468,0,16/12/2022 20:46:12,109680,37,task-v1fs,repeat-u7ds#1->-repeat-l3h2#1->-repeat-pi7a#1->-repeat-apgu#1,25998812,BLIND,7674790,NaN,complete,NaN,NaN,computer,Desktop or Laptop,Windows 10,Firefox 107.0,1536x864,1536x864,End of Day 1,SLS,90,B,NaN,NaN,NaN,Pass,End of Day 1,Pass,NaN,Pass,NaN,Pass,schedule_A,schedule_A,23,15,1,Screen 1,Zone1,continue_button,492,NaN,NaN,,NaN,0,1,0,NaN,NaN,NaN,NaN,NaN,trial_right,redBox.png,yellowBox.png,redBox.png,al1_con.png,43,22,NaN,NaN,0.85,0.85,1,1,1,0,Stable,Stable,3.622,1.319,1.193,1.067,expert
110,1671223571252,16/12/2022 20:46:11,1671223573461,0,16/12/2022 20:46:13,109680,37,task-v1fs,repeat-u7ds#1->-repeat-l3h2#1->-repeat-pi7a#1->-repeat-apgu#1,25998812,BLIND,7674790,NaN,complete,NaN,NaN,computer,Desktop or Laptop,Windows 10,Firefox 107.0,1536x864,1536x864,End of Day 1,SLS,90,B,NaN,NaN,NaN,Pass,End of Day 1,Pass,NaN,Pass,NaN,Pass,schedule_A,schedule_A,23,15,2,individual,Zone4,timelimit_screen,999.959999999992,NaN,NaN,,NaN,0,1,0,NaN,NaN,1,NaN,NaN,trial_right,redBox.png,yellowBox.png,redBox.png,al1_con.png,43,22,NaN,NaN,0.85,0.85,1,1,1,0,Stable,Stable,3.622,1.319,1.193,1.067,expert
111,1671223571873,16/12/2022 20:46:11,1671223574065,0,16/12/2022 20:46:14,109680,37,task-v1fs,repeat-u7ds#1->-repeat-l3h2#1->-repeat-pi7a#1->-repeat-apgu#1,25998812,BLIND,7674790,NaN,complete,NaN,NaN,computer,Desktop or Laptop,Windows 10,Firefox 107.0,1536x864,1536x864,End of Day 1,SLS,90,B,NaN,NaN,NaN,Pass,End of Day 1,Pass,NaN,Pass,NaN,Pass,schedule_A,schedule_A,23,15,3,offer,Zone3,response_button_image,587,NaN,NaN,redBox.png,1,1,0,0,NaN,NaN,NaN,NaN,NaN,trial_right,redBox.png,yellowBox.png,redBox.png,al1_con.png,43,22,NaN,NaN,0.85,0.85,1,1,1,0,Stable,Stable,3.622,1.319,1.193,1.067,expert
112,1671223573856,16/12/2022 20:46:13,1671223576061,0,16/12/2022 20:46:16,109680,37,task-v1fs,repeat-u7ds#1->-repeat-l3h2#1->-repeat-pi7a#1->-repeat-apgu#1,25998812,BLIND,7674790,NaN,complete,NaN,NaN,computer,Desktop or Laptop,Windows 10,Firefox 107.0,1536x864,1536x864,End of Day 1,SLS,90,B,NaN,NaN,NaN,Pass,End of Day 1,Pass,NaN,Pass,NaN,Pass,schedule_A,schedule_A,23,15,5,feedback_r,Zone7,timelimit_screen,1999.8,NaN,NaN,,NaN,0,1,0,NaN,NaN,1,NaN,NaN,trial_right,redBox.png,yellowBox.png,redBox.png,al1_con.png,43,22,NaN,NaN,0.85,0.85,1,1,1,0,Stable,Stable,3.622,1.319,1.193,1.067,expert
113,1671223574032,16/12/2022 20:46:14,1671223576209,0,16/12/2022 20:46:16,109680,37,task-v1fs,repeat-u7ds#1->-repeat-l3h2#1->-repeat-pi7a#1->-repeat-apgu#1,25998812,BLIND,7674790,NaN,complete,NaN,NaN,computer,Desktop or Laptop,Windows 10,Firefox 107.0,1536x864,1536x864,End of Day 1,SLS,90,B,NaN,NaN,NaN,Pass,End of Day 1,Pass,NaN,Pass,NaN,Pass,schedule_A,schedule_A,23,15,6,end,Zone1,timelimit_screen,150,NaN,NaN,,NaN,0,1,0,NaN,NaN,1,NaN,NaN,trial_right,redBox.png,yellowBox.png,redBox.png,al1_con.png,43,22,NaN,NaN,0.85,0.85,1,1,1,0,Stable,Stable,3.622,1.319,1.193,1.067,expert
114,1671223574468,16/12/2022 20:46:14,1671223576686,0,16/12/2022 20:46:16,109680,37,task-v1fs,repeat-u7ds#1->-repeat-l3h2#1->-repeat-pi7a#1->-repeat-apgu#1,25998812,BLIND,7674790,NaN,complete,NaN,NaN,computer,Desktop or Laptop,Windows 10,Firefox 107.0,1536x864,1536x864,End of Day 1,SLS,90,B,NaN,NaN,NaN,Pass,End of Day 1,Pass,NaN,Pass,NaN,Pass,schedule_A,schedule_A,24,8,1,Screen 1,Zone1,continue_button,466,NaN,NaN,,NaN,0,1,0,NaN,NaN,NaN,NaN,NaN,trial_left,redBox.png,redBox.png,yellowBox.png,al1_con.png,44,23,NaN,NaN,0.85,0.85,1,1,1,1,Stable,Stable,1.731,0.853,2,1.202,expert
115,1671223575471,16/12/2022 20:46:15,1671223577675,0,16/12/2022 20:46:17,109680,37,task-v1fs,repeat-u7ds#1->-repeat-l3h2#1->-repeat-pi7a#1->-repeat-apgu#1,25998812,BLIND,7674790,NaN,complete,NaN,NaN,computer,Desktop or Laptop,Windows 10,Firefox 107.0,1536x864,1536x864,End of Day 1,SLS,90,B,NaN,NaN,NaN,Pass,End of Day 1,Pass,NaN,Pass,NaN,Pass,schedule_A,schedule_A,24,8,2,individual,Zone4,timelimit_screen,999.919999999998,NaN,NaN,,NaN,0,1,0,NaN,NaN,1,NaN,NaN,trial_left,redBox.png,redBox.png,yellowBox.png,al1_con.png,44,23,NaN,NaN,0.85,0.85,1,1,1,1,Stable,Stable,1.731,0.853,2,1.202,expert
116,1671223575732,16/12/2022 20:46:15,1671223577949,0,16/12/2022 20:46:17,109680,37,task-v1fs,repeat-u7ds#1->-repeat-l3h2#1->-repeat-pi7a#1->-repeat-apgu#1,25998812,BLIND,7674790,NaN,complete,NaN,NaN,computer,Desktop or Laptop,Windows 10,Firefox 107.0,1536x864,1536x864,End of Day 1,SLS,90,B,NaN,NaN,NaN,Pass,End of Day 1,Pass,NaN,Pass,NaN,Pass,schedule_A,schedule_A,24,8,3,offer,Zone2,response_button_image,268,NaN,NaN,redBox.png,1,1,0,0,NaN,NaN,NaN,NaN,NaN,trial_left,redBox.png,redBox.png,yellowBox.png,al1_con.png,44,23,NaN,NaN,0.85,0.85,1,1,1,1,Stable,Stable,1.731,0.853,2,1.202,expert
117,1671223577749,16/12/2022 20:46:17,1671223579943,0,16/12/2022 20:46:19,109680,37,task-v1fs,repeat-u7ds#1->-repeat-l3h2#1->-repeat-pi7a#1->-repeat-apgu#1,25998812,BLIND,7674790,NaN,complete,NaN,NaN,computer,Desktop or Laptop,Windows 10,Firefox 107.0,1536x864,1536x864,End of Day 1,SLS,90,B,NaN,NaN,NaN,Pass,End of Day 1,Pass,NaN,Pass,NaN,Pass,schedule_A,schedule_A,24,8,4,feedback_l,Zone7,timelimit_screen,1999.88,NaN,NaN,,NaN,0,1,0,NaN,NaN,1,NaN,NaN,trial_left,redBox.png,redBox.png,yellowBox.png,al1_con.png,44,23,NaN,NaN,0.85,0.85,1,1,1,1,Stable,Stable,1.731,0.853,2,1.202,expert
118,1671223577883,16/12/2022 20:46:17,1671223580093,0,16/12/2022 20:46:20,109680,37,task-v1fs,repeat-u7ds#1->-repeat-l3h2#1->-repeat-pi7a#1->-repeat-apgu#1,25998812,BLIND,7674790,NaN,complete,NaN,NaN,computer,Desktop or Laptop,Windows 10,Firefox 107.0,1536x864,1536x864,End of Day 1,SLS,90,B,NaN,NaN,NaN,Pass,End of Day 1,Pass,NaN,Pass,NaN,Pass,schedule_A,schedule_A,24,8,6,end,Zone1,timelimit_screen,149.979999999996,NaN,NaN,,NaN,0,1,0,NaN,NaN,1,NaN,NaN,trial_left,redBox.png,redBox.png,yellowBox.png,al1_con.png,44,23,NaN,NaN,0.85,0.85,1,1,1,1,Stable,Stable,1.731,0.853,2,1.202,expert
119,1671223578367,16/12/2022 20:46:18,1671223580573,0,16/12/2022 20:46:20,109680,37,task-v1fs,repeat-u7ds#1->-repeat-l3h2#1->-repeat-pi7a#1->-repeat-apgu#1,25998812,BLIND,7674790,NaN,complete,NaN,NaN,computer,Desktop or Laptop,Windows 10,Firefox 107.0,1536x864,1536x864,End of Day 1,SLS,90,B,NaN,NaN,NaN,Pass,End of Day 1,Pass,NaN,Pass,NaN,Pass,schedule_A,schedule_A,25,16,1,Screen 1,Zone1,continue_button,465,NaN,NaN,,NaN,0,1,0,NaN,NaN,NaN,NaN,NaN,trial_right,redBox.png,yellowBox.png,redBox.png,al1_con.png,45,24,NaN,NaN,0.85,0.85,1,1,1,0,Stable,Stable,2.109,1.798,1.508,2.782,expert
120,1671223579357,16/12/2022 20:46:19,1671223581561,0,16/12/2022 20:46:21,109680,37,task-v1fs,repeat-u7ds#1->-repeat-l3h2#1->-repeat-pi7a#1->-repeat-apgu#1,25998812,BLIND,7674790,NaN,complete,NaN,NaN,computer,Desktop or Laptop,Windows 10,Firefox 107.0,1536x864,1536x864,End of Day 1,SLS,90,B,NaN,NaN,NaN,Pass,End of Day 1,Pass,NaN,Pass,NaN,Pass,schedule_A,schedule_A,25,16,2,individual,Zone4,timelimit_screen,999.899999999994,NaN,NaN,,NaN,0,1,0,NaN,NaN,1,NaN,NaN,trial_right,redBox.png,yellowBox.png,redBox.png,al1_con.png,45,24,NaN,NaN,0.85,0.85,1,1,1,0,Stable,Stable,2.109,1.798,1.508,2.782,expert
121,1671223580008,16/12/2022 20:46:20,1671223582205,0,16/12/2022 20:46:22,109680,37,task-v1fs,repeat-u7ds#1->-repeat-l3h2#1->-repeat-pi7a#1->-repeat-apgu#1,25998812,BLIND,7674790,NaN,complete,NaN,NaN,computer,Desktop or Laptop,Windows 10,Firefox 107.0,1536x864,1536x864,End of Day 1,SLS,90,B,NaN,NaN,NaN,Pass,End of Day 1,Pass,NaN,Pass,NaN,Pass,schedule_A,schedule_A,25,16,3,offer,Zone3,response_button_image,636,NaN,NaN,redBox.png,1,1,0,0,NaN,NaN,NaN,NaN,NaN,trial_right,redBox.png,yellowBox.png,redBox.png,al1_con.png,45,24,NaN,NaN,0.85,0.85,1,1,1,0,Stable,Stable,2.109,1.798,1.508,2.782,expert
122,1671223581990,16/12/2022 20:46:21,1671223584193,0,16/12/2022 20:46:24,109680,37,task-v1fs,repeat-u7ds#1->-repeat-l3h2#1->-repeat-pi7a#1->-repeat-apgu#1,25998812,BLIND,7674790,NaN,complete,NaN,NaN,computer,Desktop or Laptop,Windows 10,Firefox 107.0,1536x864,1536x864,End of Day 1,SLS,90,B,NaN,NaN,NaN,Pass,End of Day 1,Pass,NaN,Pass,NaN,Pass,schedule_A,schedule_A,25,16,5,feedback_r,Zone7,timelimit_screen,1999.92,NaN,NaN,,NaN,0,1,0,NaN,NaN,1,NaN,NaN,trial_right,redBox.png,yellowBox.png,redBox.png,al1_con.png,45,24,NaN,NaN,0.85,0.85,1,1,1,0,Stable,Stable,2.109,1.798,1.508,2.782,expert
123,1671223582140,16/12/2022 20:46:22,1671223584343,0,16/12/2022 20:46:24,109680,37,task-v1fs,repeat-u7ds#1->-repeat-l3h2#1->-repeat-pi7a#1->-repeat-apgu#1,25998812,BLIND,7674790,NaN,complete,NaN,NaN,computer,Desktop or Laptop,Windows 10,Firefox 107.0,1536x864,1536x864,End of Day 1,SLS,90,B,NaN,NaN,NaN,Pass,End of Day 1,Pass,NaN,Pass,NaN,Pass,schedule_A,schedule_A,25,16,6,end,Zone1,timelimit_screen,149.960000000006,NaN,NaN,,NaN,0,1,0,NaN,NaN,1,NaN,NaN,trial_right,redBox.png,yellowBox.png,redBox.png,al1_con.png,45,24,NaN,NaN,0.85,0.85,1,1,1,0,Stable,Stable,2.109,1.798,1.508,2.782,expert
124,1671223582649,16/12/2022 20:46:22,1671223584859,0,16/12/2022 20:46:24,109680,37,task-v1fs,repeat-u7ds#1->-repeat-l3h2#1->-repeat-pi7a#1->-repeat-apgu#1,25998812,BLIND,7674790,NaN,complete,NaN,NaN,computer,Desktop or Laptop,Windows 10,Firefox 107.0,1536x864,1536x864,End of Day 1,SLS,90,B,NaN,NaN,NaN,Pass,End of Day 1,Pass,NaN,Pass,NaN,Pass,schedule_A,schedule_A,26,9,1,Screen 1,Zone1,continue_button,502,NaN,NaN,,NaN,0,1,0,NaN,NaN,NaN,NaN,NaN,trial_left,redBox.png,redBox.png,yellowBox.png,al1_con.png,46,25,NaN,NaN,0.85,0.85,1,1,1,1,Stable,Stable,2.916,1.294,1.962,2.361,expert
125,1671223583660,16/12/2022 20:46:23,1671223585857,0,16/12/2022 20:46:25,109680,37,task-v1fs,repeat-u7ds#1->-repeat-l3h2#1->-repeat-pi7a#1->-repeat-apgu#1,25998812,BLIND,7674790,NaN,complete,NaN,NaN,computer,Desktop or Laptop,Windows 10,Firefox 107.0,1536x864,1536x864,End of Day 1,SLS,90,B,NaN,NaN,NaN,Pass,End of Day 1,Pass,NaN,Pass,NaN,Pass,schedule_A,schedule_A,26,9,2,individual,Zone4,timelimit_screen,999.940000000002,NaN,NaN,,NaN,0,1,0,NaN,NaN,1,NaN,NaN,trial_left,redBox.png,redBox.png,yellowBox.png,al1_con.png,46,25,NaN,NaN,0.85,0.85,1,1,1,1,Stable,Stable,2.916,1.294,1.962,2.361,expert
126,1671223584324,16/12/2022 20:46:24,1671223586533,0,16/12/2022 20:46:26,109680,37,task-v1fs,repeat-u7ds#1->-repeat-l3h2#1->-repeat-pi7a#1->-repeat-apgu#1,25998812,BLIND,7674790,NaN,complete,NaN,NaN,computer,Desktop or Laptop,Windows 10,Firefox 107.0,1536x864,1536x864,End of Day 1,SLS,90,B,NaN,NaN,NaN,Pass,End of Day 1,Pass,NaN,Pass,NaN,Pass,schedule_A,schedule_A,26,9,3,offer,Zone2,response_button_image,668,NaN,NaN,redBox.png,1,1,0,0,NaN,NaN,NaN,NaN,NaN,trial_left,redBox.png,redBox.png,yellowBox.png,al1_con.png,46,25,NaN,NaN,0.85,0.85,1,1,1,1,Stable,Stable,2.916,1.294,1.962,2.361,expert
127,1671223586330,16/12/2022 20:46:26,1671223588526,0,16/12/2022 20:46:28,109680,37,task-v1fs,repeat-u7ds#1->-repeat-l3h2#1->-repeat-pi7a#1->-repeat-apgu#1,25998812,BLIND,7674790,NaN,complete,NaN,NaN,computer,Desktop or Laptop,Windows 10,Firefox 107.0,1536x864,1536x864,End of Day 1,SLS,90,B,NaN,NaN,NaN,Pass,End of Day 1,Pass,NaN,Pass,NaN,Pass,schedule_A,schedule_A,26,9,4,feedback_l,Zone7,timelimit_screen,1999.94,NaN,NaN,,NaN,0,1,0,NaN,NaN,1,NaN,NaN,trial_left,redBox.png,redBox.png,yellowBox.png,al1_con.png,46,25,NaN,NaN,0.85,0.85,1,1,1,1,Stable,Stable,2.916,1.294,1.962,2.361,expert
128,1671223586465,16/12/2022 20:46:26,1671223588676,0,16/12/2022 20:46:28,109680,37,task-v1fs,repeat-u7ds#1->-repeat-l3h2#1->-repeat-pi7a#1->-repeat-apgu#1,25998812,BLIND,7674790,NaN,complete,NaN,NaN,computer,Desktop or Laptop,Windows 10,Firefox 107.0,1536x864,1536x864,End of Day 1,SLS,90,B,NaN,NaN,NaN,Pass,End of Day 1,Pass,NaN,Pass,NaN,Pass,schedule_A,schedule_A,26,9,6,end,Zone1,timelimit_screen,150,NaN,NaN,,NaN,0,1,0,NaN,NaN,1,NaN,NaN,trial_left,redBox.png,redBox.png,yellowBox.png,al1_con.png,46,25,NaN,NaN,0.85,0.85,1,1,1,1,Stable,Stable,2.916,1.294,1.962,2.361,expert
129,1671223586925,16/12/2022 20:46:26,1671223589143,0,16/12/2022 20:46:29,109680,37,task-v1fs,repeat-u7ds#1->-repeat-l3h2#1->-repeat-pi7a#1->-repeat-apgu#1,25998812,BLIND,7674790,NaN,complete,NaN,NaN,computer,Desktop or Laptop,Windows 10,Firefox 107.0,1536x864,1536x864,End of Day 1,SLS,90,B,NaN,NaN,NaN,Pass,End of Day 1,Pass,NaN,Pass,NaN,Pass,schedule_A,schedule_A,27,17,1,Screen 1,Zone1,continue_button,455,NaN,NaN,,NaN,0,1,0,NaN,NaN,NaN,NaN,NaN,trial_right,redBox.png,yellowBox.png,redBox.png,al1_con.png,47,26,NaN,NaN,0.85,0.85,1,1,1,0,Stable,Stable,2.487,1.697,1.13,1.286,expert
130,1671223587940,16/12/2022 20:46:27,1671223590143,0,16/12/2022 20:46:30,109680,37,task-v1fs,repeat-u7ds#1->-repeat-l3h2#1->-repeat-pi7a#1->-repeat-apgu#1,25998812,BLIND,7674790,NaN,complete,NaN,NaN,computer,Desktop or Laptop,Windows 10,Firefox 107.0,1536x864,1536x864,End of Day 1,SLS,90,B,NaN,NaN,NaN,Pass,End of Day 1,Pass,NaN,Pass,NaN,Pass,schedule_A,schedule_A,27,17,2,individual,Zone4,timelimit_screen,999.919999999998,NaN,NaN,,NaN,0,1,0,NaN,NaN,1,NaN,NaN,trial_right,redBox.png,yellowBox.png,redBox.png,al1_con.png,47,26,NaN,NaN,0.85,0.85,1,1,1,0,Stable,Stable,2.487,1.697,1.13,1.286,expert
131,1671223588521,16/12/2022 20:46:28,1671223590725,0,16/12/2022 20:46:30,109680,37,task-v1fs,repeat-u7ds#1->-repeat-l3h2#1->-repeat-pi7a#1->-repeat-apgu#1,25998812,BLIND,7674790,NaN,complete,NaN,NaN,computer,Desktop or Laptop,Windows 10,Firefox 107.0,1536x864,1536x864,End of Day 1,SLS,90,B,NaN,NaN,NaN,Pass,End of Day 1,Pass,NaN,Pass,NaN,Pass,schedule_A,schedule_A,27,17,3,offer,Zone3,response_button_image,573,NaN,NaN,redBox.png,1,1,0,0,NaN,NaN,NaN,NaN,NaN,trial_right,redBox.png,yellowBox.png,redBox.png,al1_con.png,47,26,NaN,NaN,0.85,0.85,1,1,1,0,Stable,Stable,2.487,1.697,1.13,1.286,expert
132,1671223590523,16/12/2022 20:46:30,1671223592725,0,16/12/2022 20:46:32,109680,37,task-v1fs,repeat-u7ds#1->-repeat-l3h2#1->-repeat-pi7a#1->-repeat-apgu#1,25998812,BLIND,7674790,NaN,complete,NaN,NaN,computer,Desktop or Laptop,Windows 10,Firefox 107.0,1536x864,1536x864,End of Day 1,SLS,90,B,NaN,NaN,NaN,Pass,End of Day 1,Pass,NaN,Pass,NaN,Pass,schedule_A,schedule_A,27,17,5,feedback_r,Zone7,timelimit_screen,1999.89999999999,NaN,NaN,,NaN,0,1,0,NaN,NaN,1,NaN,NaN,trial_right,redBox.png,yellowBox.png,redBox.png,al1_con.png,47,26,NaN,NaN,0.85,0.85,1,1,1,0,Stable,Stable,2.487,1.697,1.13,1.286,expert
133,1671223590665,16/12/2022 20:46:30,1671223592874,0,16/12/2022 20:46:32,109680,37,task-v1fs,repeat-u7ds#1->-repeat-l3h2#1->-repeat-pi7a#1->-repeat-apgu#1,25998812,BLIND,7674790,NaN,complete,NaN,NaN,computer,Desktop or Laptop,Windows 10,Firefox 107.0,1536x864,1536x864,End of Day 1,SLS,90,B,NaN,NaN,NaN,Pass,End of Day 1,Pass,NaN,Pass,NaN,Pass,schedule_A,schedule_A,27,17,6,end,Zone1,timelimit_screen,149.920000000013,NaN,NaN,,NaN,0,1,0,NaN,NaN,1,NaN,NaN,trial_right,redBox.png,yellowBox.png,redBox.png,al1_con.png,47,26,NaN,NaN,0.85,0.85,1,1,1,0,Stable,Stable,2.487,1.697,1.13,1.286,expert
134,1671223590748,16/12/2022 20:46:30,1671223592966,0,16/12/2022 20:46:32,109680,37,task-v1fs,repeat-u7ds#1->-repeat-l3h2#1->-repeat-pi7a#1->-repeat-apgu#1,25998812,BLIND,7674790,NaN,complete,NaN,NaN,computer,Desktop or Laptop,Windows 10,Firefox 107.0,1536x864,1536x864,End of Day 1,SLS,90,B,NaN,NaN,NaN,Pass,End of Day 1,Pass,NaN,Pass,NaN,Pass,schedule_A,schedule_A,28,10,1,Screen 1,Zone1,continue_button,76,NaN,NaN,,NaN,0,1,0,NaN,NaN,NaN,NaN,NaN,trial_left,redBox.png,redBox.png,yellowBox.png,al1_con.png,48,27,NaN,NaN,0.85,0.85,1,1,1,1,Stable,Stable,3.824,1.634,0.992,2.244,expert
135,1671223591742,16/12/2022 20:46:31,1671223593957,0,16/12/2022 20:46:33,109680,37,task-v1fs,repeat-u7ds#1->-repeat-l3h2#1->-repeat-pi7a#1->-repeat-apgu#1,25998812,BLIND,7674790,NaN,complete,NaN,NaN,computer,Desktop or Laptop,Windows 10,Firefox 107.0,1536x864,1536x864,End of Day 1,SLS,90,B,NaN,NaN,NaN,Pass,End of Day 1,Pass,NaN,Pass,NaN,Pass,schedule_A,schedule_A,28,10,2,individual,Zone4,timelimit_screen,999.960000000006,NaN,NaN,,NaN,0,1,0,NaN,NaN,1,NaN,NaN,trial_left,redBox.png,redBox.png,yellowBox.png,al1_con.png,48,27,NaN,NaN,0.85,0.85,1,1,1,1,Stable,Stable,3.824,1.634,0.992,2.244,expert
136,1671223592281,16/12/2022 20:46:32,1671223594487,0,16/12/2022 20:46:34,109680,37,task-v1fs,repeat-u7ds#1->-repeat-l3h2#1->-repeat-pi7a#1->-repeat-apgu#1,25998812,BLIND,7674790,NaN,complete,NaN,NaN,computer,Desktop or Laptop,Windows 10,Firefox 107.0,1536x864,1536x864,End of Day 1,SLS,90,B,NaN,NaN,NaN,Pass,End of Day 1,Pass,NaN,Pass,NaN,Pass,schedule_A,schedule_A,28,10,3,offer,bluebox,response_button_image,525,NaN,NaN,yellowBox.png,1,0,1,0,NaN,NaN,NaN,NaN,NaN,trial_left,redBox.png,redBox.png,yellowBox.png,al1_con.png,48,27,NaN,NaN,0.85,0.85,1,1,1,1,Stable,Stable,3.824,1.634,0.992,2.244,expert
137,1671223594256,16/12/2022 20:46:34,1671223596474,0,16/12/2022 20:46:36,109680,37,task-v1fs,repeat-u7ds#1->-repeat-l3h2#1->-repeat-pi7a#1->-repeat-apgu#1,25998812,BLIND,7674790,NaN,complete,NaN,NaN,computer,Desktop or Laptop,Windows 10,Firefox 107.0,1536x864,1536x864,End of Day 1,SLS,90,B,NaN,NaN,NaN,Pass,End of Day 1,Pass,NaN,Pass,NaN,Pass,schedule_A,schedule_A,28,10,5,feedback_r,Zone7,timelimit_screen,1999.84,NaN,NaN,,NaN,0,1,0,NaN,NaN,1,NaN,NaN,trial_left,redBox.png,redBox.png,yellowBox.png,al1_con.png,48,27,NaN,NaN,0.85,0.85,1,1,1,1,Stable,Stable,3.824,1.634,0.992,2.244,expert
138,1671223594422,16/12/2022 20:46:34,1671223596626,0,16/12/2022 20:46:36,109680,37,task-v1fs,repeat-u7ds#1->-repeat-l3h2#1->-repeat-pi7a#1->-repeat-apgu#1,25998812,BLIND,7674790,NaN,complete,NaN,NaN,computer,Desktop or Laptop,Windows 10,Firefox 107.0,1536x864,1536x864,End of Day 1,SLS,90,B,NaN,NaN,NaN,Pass,End of Day 1,Pass,NaN,Pass,NaN,Pass,schedule_A,schedule_A,28,10,6,end,Zone1,timelimit_screen,150,NaN,NaN,,NaN,0,1,0,NaN,NaN,1,NaN,NaN,trial_left,redBox.png,redBox.png,yellowBox.png,al1_con.png,48,27,NaN,NaN,0.85,0.85,1,1,1,1,Stable,Stable,3.824,1.634,0.992,2.244,expert
139,1671223594915,16/12/2022 20:46:34,1671223597125,0,16/12/2022 20:46:37,109680,37,task-v1fs,repeat-u7ds#1->-repeat-l3h2#1->-repeat-pi7a#1->-repeat-apgu#1,25998812,BLIND,7674790,NaN,complete,NaN,NaN,computer,Desktop or Laptop,Windows 10,Firefox 107.0,1536x864,1536x864,End of Day 1,SLS,90,B,NaN,NaN,NaN,Pass,End of Day 1,Pass,NaN,Pass,NaN,Pass,schedule_A,schedule_A,29,11,1,Screen 1,Zone1,continue_button,486,NaN,NaN,,NaN,0,1,0,NaN,NaN,NaN,NaN,NaN,trial_left,redBox.png,redBox.png,yellowBox.png,al1_con.png,49,28,NaN,NaN,0.85,0.85,1,1,1,1,Stable,Stable,2.84,1.937,1.723,2.815,expert
140,1671223595908,16/12/2022 20:46:35,1671223598124,0,16/12/2022 20:46:38,109680,37,task-v1fs,repeat-u7ds#1->-repeat-l3h2#1->-repeat-pi7a#1->-repeat-apgu#1,25998812,BLIND,7674790,NaN,complete,NaN,NaN,computer,Desktop or Laptop,Windows 10,Firefox 107.0,1536x864,1536x864,End of Day 1,SLS,90,B,NaN,NaN,NaN,Pass,End of Day 1,Pass,NaN,Pass,NaN,Pass,schedule_A,schedule_A,29,11,2,individual,Zone4,timelimit_screen,999.940000000002,NaN,NaN,,NaN,0,1,0,NaN,NaN,1,NaN,NaN,trial_left,redBox.png,redBox.png,yellowBox.png,al1_con.png,49,28,NaN,NaN,0.85,0.85,1,1,1,1,Stable,Stable,2.84,1.937,1.723,2.815,expert
141,1671223596493,16/12/2022 20:46:36,1671223598702,0,16/12/2022 20:46:38,109680,37,task-v1fs,repeat-u7ds#1->-repeat-l3h2#1->-repeat-pi7a#1->-repeat-apgu#1,25998812,BLIND,7674790,NaN,complete,NaN,NaN,computer,Desktop or Laptop,Windows 10,Firefox 107.0,1536x864,1536x864,End of Day 1,SLS,90,B,NaN,NaN,NaN,Pass,End of Day 1,Pass,NaN,Pass,NaN,Pass,schedule_A,schedule_A,29,11,3,offer,Zone2,response_button_image,573,NaN,NaN,redBox.png,1,1,0,0,NaN,NaN,NaN,NaN,NaN,trial_left,redBox.png,redBox.png,yellowBox.png,al1_con.png,49,28,NaN,NaN,0.85,0.85,1,1,1,1,Stable,Stable,2.84,1.937,1.723,2.815,expert
142,1671223598476,16/12/2022 20:46:38,1671223600692,0,16/12/2022 20:46:40,109680,37,task-v1fs,repeat-u7ds#1->-repeat-l3h2#1->-repeat-pi7a#1->-repeat-apgu#1,25998812,BLIND,7674790,NaN,complete,NaN,NaN,computer,Desktop or Laptop,Windows 10,Firefox 107.0,1536x864,1536x864,End of Day 1,SLS,90,B,NaN,NaN,NaN,Pass,End of Day 1,Pass,NaN,Pass,NaN,Pass,schedule_A,schedule_A,29,11,4,feedback_l,Zone7,timelimit_screen,1999.88,NaN,NaN,,NaN,0,1,0,NaN,NaN,1,NaN,NaN,trial_left,redBox.png,redBox.png,yellowBox.png,al1_con.png,49,28,NaN,NaN,0.85,0.85,1,1,1,1,Stable,Stable,2.84,1.937,1.723,2.815,expert
143,1671223598628,16/12/2022 20:46:38,1671223600842,0,16/12/2022 20:46:40,109680,37,task-v1fs,repeat-u7ds#1->-repeat-l3h2#1->-repeat-pi7a#1->-repeat-apgu#1,25998812,BLIND,7674790,NaN,complete,NaN,NaN,computer,Desktop or Laptop,Windows 10,Firefox 107.0,1536x864,1536x864,End of Day 1,SLS,90,B,NaN,NaN,NaN,Pass,End of Day 1,Pass,NaN,Pass,NaN,Pass,schedule_A,schedule_A,29,11,6,end,Zone1,timelimit_screen,150,NaN,NaN,,NaN,0,1,0,NaN,NaN,1,NaN,NaN,trial_left,redBox.png,redBox.png,yellowBox.png,al1_con.png,49,28,NaN,NaN,0.85,0.85,1,1,1,1,Stable,Stable,2.84,1.937,1.723,2.815,expert
144,1671223599112,16/12/2022 20:46:39,1671223601326,0,16/12/2022 20:46:41,109680,37,task-v1fs,repeat-u7ds#1->-repeat-l3h2#1->-repeat-pi7a#1->-repeat-apgu#1,25998812,BLIND,7674790,NaN,complete,NaN,NaN,computer,Desktop or Laptop,Windows 10,Firefox 107.0,1536x864,1536x864,End of Day 1,SLS,90,B,NaN,NaN,NaN,Pass,End of Day 1,Pass,NaN,Pass,NaN,Pass,schedule_A,schedule_A,30,18,1,Screen 1,Zone1,continue_button,462,NaN,NaN,,NaN,0,1,0,NaN,NaN,NaN,NaN,NaN,trial_right,redBox.png,yellowBox.png,redBox.png,al1_con.png,50,29,NaN,NaN,0.85,0.85,1,1,1,0,Stable,Stable,2.941,1.71,0.664,1.336,expert
145,1671223600107,16/12/2022 20:46:40,1671223602325,0,16/12/2022 20:46:42,109680,37,task-v1fs,repeat-u7ds#1->-repeat-l3h2#1->-repeat-pi7a#1->-repeat-apgu#1,25998812,BLIND,7674790,NaN,complete,NaN,NaN,computer,Desktop or Laptop,Windows 10,Firefox 107.0,1536x864,1536x864,End of Day 1,SLS,90,B,NaN,NaN,NaN,Pass,End of Day 1,Pass,NaN,Pass,NaN,Pass,schedule_A,schedule_A,30,18,2,individual,Zone4,timelimit_screen,999.959999999992,NaN,NaN,,NaN,0,1,0,NaN,NaN,1,NaN,NaN,trial_right,redBox.png,yellowBox.png,redBox.png,al1_con.png,50,29,NaN,NaN,0.85,0.85,1,1,1,0,Stable,Stable,2.941,1.71,0.664,1.336,expert
146,1671223600889,16/12/2022 20:46:40,1671223603106,0,16/12/2022 20:46:43,109680,37,task-v1fs,repeat-u7ds#1->-repeat-l3h2#1->-repeat-pi7a#1->-repeat-apgu#1,25998812,BLIND,7674790,NaN,complete,NaN,NaN,computer,Desktop or Laptop,Windows 10,Firefox 107.0,1536x864,1536x864,End of Day 1,SLS,90,B,NaN,NaN,NaN,Pass,End of Day 1,Pass,NaN,Pass,NaN,Pass,schedule_A,schedule_A,30,18,3,offer,Zone3,response_button_image,773,NaN,NaN,redBox.png,1,1,0,0,NaN,NaN,NaN,NaN,NaN,trial_right,redBox.png,yellowBox.png,redBox.png,al1_con.png,50,29,NaN,NaN,0.85,0.85,1,1,1,0,Stable,Stable,2.941,1.71,0.664,1.336,expert
147,1671223602905,16/12/2022 20:46:42,1671223605091,0,16/12/2022 20:46:45,109680,37,task-v1fs,repeat-u7ds#1->-repeat-l3h2#1->-repeat-pi7a#1->-repeat-apgu#1,25998812,BLIND,7674790,NaN,complete,NaN,NaN,computer,Desktop or Laptop,Windows 10,Firefox 107.0,1536x864,1536x864,End of Day 1,SLS,90,B,NaN,NaN,NaN,Pass,End of Day 1,Pass,NaN,Pass,NaN,Pass,schedule_A,schedule_A,30,18,5,feedback_r,Zone7,timelimit_screen,1999.88,NaN,NaN,,NaN,0,1,0,NaN,NaN,1,NaN,NaN,trial_right,redBox.png,yellowBox.png,redBox.png,al1_con.png,50,29,NaN,NaN,0.85,0.85,1,1,1,0,Stable,Stable,2.941,1.71,0.664,1.336,expert
148,1671223603292,16/12/2022 20:46:43,1671223605240,0,16/12/2022 20:46:45,109680,37,task-v1fs,repeat-u7ds#1->-repeat-l3h2#1->-repeat-pi7a#1->-repeat-apgu#1,25998812,BLIND,7674790,NaN,complete,NaN,NaN,computer,Desktop or Laptop,Windows 10,Firefox 107.0,1536x864,1536x864,End of Day 1,SLS,90,B,NaN,NaN,NaN,Pass,End of Day 1,Pass,NaN,Pass,NaN,Pass,schedule_A,schedule_A,30,18,6,end,Zone1,timelimit_screen,150,NaN,NaN,,NaN,0,1,0,NaN,NaN,1,NaN,NaN,trial_right,redBox.png,yellowBox.png,redBox.png,al1_con.png,50,29,NaN,NaN,0.85,0.85,1,1,1,0,Stable,Stable,2.941,1.71,0.664,1.336,expert
149,1671223605530,16/12/2022 20:46:45,1671223607752,0,16/12/2022 20:46:47,109680,37,task-v1fs,repeat-u7ds#1->-repeat-l3h2#1->-repeat-pi7a#1->-repeat-apgu#1,25998812,BLIND,7674790,NaN,complete,NaN,NaN,computer,Desktop or Laptop,Windows 10,Firefox 107.0,1536x864,1536x864,End of Day 1,SLS,90,B,NaN,NaN,NaN,Pass,End of Day 1,Pass,NaN,Pass,NaN,Pass,schedule_A,schedule_A,31,12,1,Screen 1,Zone1,continue_button,2497,NaN,NaN,,NaN,0,1,0,NaN,NaN,NaN,NaN,NaN,trial_left,redBox.png,redBox.png,yellowBox.png,al1_con.png,61,30,NaN,NaN,0.85,0.85,1,1,1,1,Stable,Stable,2.79,1.735,0.601,2.345,expert
150,1671223606552,16/12/2022 20:46:46,1671223608742,0,16/12/2022 20:46:48,109680,37,task-v1fs,repeat-u7ds#1->-repeat-l3h2#1->-repeat-pi7a#1->-repeat-apgu#1,25998812,BLIND,7674790,NaN,complete,NaN,NaN,computer,Desktop or Laptop,Windows 10,Firefox 107.0,1536x864,1536x864,End of Day 1,SLS,90,B,NaN,NaN,NaN,Pass,End of Day 1,Pass,NaN,Pass,NaN,Pass,schedule_A,schedule_A,31,12,2,individual,Zone4,timelimit_screen,999.940000000002,NaN,NaN,,NaN,0,1,0,NaN,NaN,1,NaN,NaN,trial_left,redBox.png,redBox.png,yellowBox.png,al1_con.png,61,30,NaN,NaN,0.85,0.85,1,1,1,1,Stable,Stable,2.79,1.735,0.601,2.345,expert
151,1671223608402,16/12/2022 20:46:48,1671223610600,0,16/12/2022 20:46:50,109680,37,task-v1fs,repeat-u7ds#1->-repeat-l3h2#1->-repeat-pi7a#1->-repeat-apgu#1,25998812,BLIND,7674790,NaN,complete,NaN,NaN,computer,Desktop or Laptop,Windows 10,Firefox 107.0,1536x864,1536x864,End of Day 1,SLS,90,B,NaN,NaN,NaN,Pass,End of Day 1,Pass,NaN,Pass,NaN,Pass,schedule_A,schedule_A,31,12,3,offer,Zone2,response_button_image,1848,NaN,NaN,redBox.png,1,1,0,0,NaN,NaN,NaN,NaN,NaN,trial_left,redBox.png,redBox.png,yellowBox.png,al1_con.png,61,30,NaN,NaN,0.85,0.85,1,1,1,1,Stable,Stable,2.79,1.735,0.601,2.345,expert
152,1671223610390,16/12/2022 20:46:50,1671223612589,0,16/12/2022 20:46:52,109680,37,task-v1fs,repeat-u7ds#1->-repeat-l3h2#1->-repeat-pi7a#1->-repeat-apgu#1,25998812,BLIND,7674790,NaN,complete,NaN,NaN,computer,Desktop or Laptop,Windows 10,Firefox 107.0,1536x864,1536x864,End of Day 1,SLS,90,B,NaN,NaN,NaN,Pass,End of Day 1,Pass,NaN,Pass,NaN,Pass,schedule_A,schedule_A,31,12,4,feedback_l,Zone7,timelimit_screen,1999.82000000001,NaN,NaN,,NaN,0,1,0,NaN,NaN,1,NaN,NaN,trial_left,redBox.png,redBox.png,yellowBox.png,al1_con.png,61,30,NaN,NaN,0.85,0.85,1,1,1,1,Stable,Stable,2.79,1.735,0.601,2.345,expert
153,1671223610520,16/12/2022 20:46:50,1671223612740,0,16/12/2022 20:46:52,109680,37,task-v1fs,repeat-u7ds#1->-repeat-l3h2#1->-repeat-pi7a#1->-repeat-apgu#1,25998812,BLIND,7674790,NaN,complete,NaN,NaN,computer,Desktop or Laptop,Windows 10,Firefox 107.0,1536x864,1536x864,End of Day 1,SLS,90,B,NaN,NaN,NaN,Pass,End of Day 1,Pass,NaN,Pass,NaN,Pass,schedule_A,schedule_A,31,12,6,end,Zone1,timelimit_screen,150,NaN,NaN,,NaN,0,1,0,NaN,NaN,1,NaN,NaN,trial_left,redBox.png,redBox.png,yellowBox.png,al1_con.png,61,30,NaN,NaN,0.85,0.85,1,1,1,1,Stable,Stable,2.79,1.735,0.601,2.345,expert
154,1671223611260,16/12/2022 20:46:51,1671223613468,0,16/12/2022 20:46:53,109680,37,task-v1fs,repeat-u7ds#1->-repeat-l3h2#1->-repeat-pi7a#1->-repeat-apgu#1,25998812,BLIND,7674790,NaN,complete,NaN,NaN,computer,Desktop or Laptop,Windows 10,Firefox 107.0,1536x864,1536x864,End of Day 1,SLS,90,B,NaN,NaN,NaN,Pass,End of Day 1,Pass,NaN,Pass,NaN,Pass,schedule_A,schedule_A,32,19,1,Screen 1,Zone1,continue_button,705,NaN,NaN,,NaN,0,1,0,NaN,NaN,NaN,NaN,NaN,trial_right,redBox.png,redBox.png,yellowBox.png,al1_con.png,62,31,NaN,NaN,0.85,0.15,1,0,0,1,Stable,Volatile,2.538,1.672,1.143,1.555,expert
155,1671223612236,16/12/2022 20:46:52,1671223614456,0,16/12/2022 20:46:54,109680,37,task-v1fs,repeat-u7ds#1->-repeat-l3h2#1->-repeat-pi7a#1->-repeat-apgu#1,25998812,BLIND,7674790,NaN,complete,NaN,NaN,computer,Desktop or Laptop,Windows 10,Firefox 107.0,1536x864,1536x864,End of Day 1,SLS,90,B,NaN,NaN,NaN,Pass,End of Day 1,Pass,NaN,Pass,NaN,Pass,schedule_A,schedule_A,32,19,2,individual,Zone4,timelimit_screen,999.960000000021,NaN,NaN,,NaN,0,1,0,NaN,NaN,1,NaN,NaN,trial_right,redBox.png,redBox.png,yellowBox.png,al1_con.png,62,31,NaN,NaN,0.85,0.15,1,0,0,1,Stable,Volatile,2.538,1.672,1.143,1.555,expert
156,1671223616398,16/12/2022 20:46:56,1671223618600,0,16/12/2022 20:46:58,109680,37,task-v1fs,repeat-u7ds#1->-repeat-l3h2#1->-repeat-pi7a#1->-repeat-apgu#1,25998812,BLIND,7674790,NaN,complete,NaN,NaN,computer,Desktop or Laptop,Windows 10,Firefox 107.0,1536x864,1536x864,End of Day 1,SLS,90,B,NaN,NaN,NaN,Pass,End of Day 1,Pass,NaN,Pass,NaN,Pass,schedule_A,schedule_A,32,19,3,offer,Zone3,response_button_image,4133,NaN,NaN,yellowBox.png,1,0,1,0,NaN,NaN,NaN,NaN,NaN,trial_right,redBox.png,redBox.png,yellowBox.png,al1_con.png,62,31,NaN,NaN,0.85,0.15,1,0,0,1,Stable,Volatile,2.538,1.672,1.143,1.555,expert
157,1671223618378,16/12/2022 20:46:58,1671223620587,0,16/12/2022 20:47:00,109680,37,task-v1fs,repeat-u7ds#1->-repeat-l3h2#1->-repeat-pi7a#1->-repeat-apgu#1,25998812,BLIND,7674790,NaN,complete,NaN,NaN,computer,Desktop or Laptop,Windows 10,Firefox 107.0,1536x864,1536x864,End of Day 1,SLS,90,B,NaN,NaN,NaN,Pass,End of Day 1,Pass,NaN,Pass,NaN,Pass,schedule_A,schedule_A,32,19,5,feedback_r,Zone7,timelimit_screen,1999.76000000001,NaN,NaN,,NaN,0,1,0,NaN,NaN,1,NaN,NaN,trial_right,redBox.png,redBox.png,yellowBox.png,al1_con.png,62,31,NaN,NaN,0.85,0.15,1,0,0,1,Stable,Volatile,2.538,1.672,1.143,1.555,expert
158,1671223618545,16/12/2022 20:46:58,1671223620740,0,16/12/2022 20:47:00,109680,37,task-v1fs,repeat-u7ds#1->-repeat-l3h2#1->-repeat-pi7a#1->-repeat-apgu#1,25998812,BLIND,7674790,NaN,complete,NaN,NaN,computer,Desktop or Laptop,Windows 10,Firefox 107.0,1536x864,1536x864,End of Day 1,SLS,90,B,NaN,NaN,NaN,Pass,End of Day 1,Pass,NaN,Pass,NaN,Pass,schedule_A,schedule_A,32,19,6,end,Zone1,timelimit_screen,150,NaN,NaN,,NaN,0,1,0,NaN,NaN,1,NaN,NaN,trial_right,redBox.png,redBox.png,yellowBox.png,al1_con.png,62,31,NaN,NaN,0.85,0.15,1,0,0,1,Stable,Volatile,2.538,1.672,1.143,1.555,expert
159,1671223618582,16/12/2022 20:46:58,1671223620798,0,16/12/2022 20:47:00,109680,37,task-v1fs,repeat-u7ds#1->-repeat-l3h2#1->-repeat-pi7a#1->-repeat-apgu#1,25998812,BLIND,7674790,NaN,complete,NaN,NaN,computer,Desktop or Laptop,Windows 10,Firefox 107.0,1536x864,1536x864,End of Day 1,SLS,90,B,NaN,NaN,NaN,Pass,End of Day 1,Pass,NaN,Pass,NaN,Pass,schedule_A,schedule_A,33,13,1,Screen 1,Zone1,continue_button,41,NaN,NaN,,NaN,0,1,0,NaN,NaN,NaN,NaN,NaN,trial_left,redBox.png,yellowBox.png,redBox.png,al1_con.png,63,32,NaN,NaN,0.85,0.15,1,0,0,0,Stable,Volatile,2.739,1.13,0.815,1.387,expert
160,1671223619598,16/12/2022 20:46:59,1671223621789,0,16/12/2022 20:47:01,109680,37,task-v1fs,repeat-u7ds#1->-repeat-l3h2#1->-repeat-pi7a#1->-repeat-apgu#1,25998812,BLIND,7674790,NaN,complete,NaN,NaN,computer,Desktop or Laptop,Windows 10,Firefox 107.0,1536x864,1536x864,End of Day 1,SLS,90,B,NaN,NaN,NaN,Pass,End of Day 1,Pass,NaN,Pass,NaN,Pass,schedule_A,schedule_A,33,13,2,individual,Zone4,timelimit_screen,999.919999999984,NaN,NaN,,NaN,0,1,0,NaN,NaN,1,NaN,NaN,trial_left,redBox.png,yellowBox.png,redBox.png,al1_con.png,63,32,NaN,NaN,0.85,0.15,1,0,0,0,Stable,Volatile,2.739,1.13,0.815,1.387,expert
161,1671223619697,16/12/2022 20:46:59,1671223621913,0,16/12/2022 20:47:01,109680,37,task-v1fs,repeat-u7ds#1->-repeat-l3h2#1->-repeat-pi7a#1->-repeat-apgu#1,25998812,BLIND,7674790,NaN,complete,NaN,NaN,computer,Desktop or Laptop,Windows 10,Firefox 107.0,1536x864,1536x864,End of Day 1,SLS,90,B,NaN,NaN,NaN,Pass,End of Day 1,Pass,NaN,Pass,NaN,Pass,schedule_A,schedule_A,33,13,3,offer,bluebox,response_button_image,115,NaN,NaN,redBox.png,1,1,0,0,NaN,NaN,NaN,NaN,NaN,trial_left,redBox.png,yellowBox.png,redBox.png,al1_con.png,63,32,NaN,NaN,0.85,0.15,1,0,0,0,Stable,Volatile,2.739,1.13,0.815,1.387,expert
162,1671223621698,16/12/2022 20:47:01,1671223623905,0,16/12/2022 20:47:03,109680,37,task-v1fs,repeat-u7ds#1->-repeat-l3h2#1->-repeat-pi7a#1->-repeat-apgu#1,25998812,BLIND,7674790,NaN,complete,NaN,NaN,computer,Desktop or Laptop,Windows 10,Firefox 107.0,1536x864,1536x864,End of Day 1,SLS,90,B,NaN,NaN,NaN,Pass,End of Day 1,Pass,NaN,Pass,NaN,Pass,schedule_A,schedule_A,33,13,5,feedback_r,Zone7,timelimit_screen,1999.81999999998,NaN,NaN,,NaN,0,1,0,NaN,NaN,1,NaN,NaN,trial_left,redBox.png,yellowBox.png,redBox.png,al1_con.png,63,32,NaN,NaN,0.85,0.15,1,0,0,0,Stable,Volatile,2.739,1.13,0.815,1.387,expert
163,1671223621852,16/12/2022 20:47:01,1671223624056,0,16/12/2022 20:47:04,109680,37,task-v1fs,repeat-u7ds#1->-repeat-l3h2#1->-repeat-pi7a#1->-repeat-apgu#1,25998812,BLIND,7674790,NaN,complete,NaN,NaN,computer,Desktop or Laptop,Windows 10,Firefox 107.0,1536x864,1536x864,End of Day 1,SLS,90,B,NaN,NaN,NaN,Pass,End of Day 1,Pass,NaN,Pass,NaN,Pass,schedule_A,schedule_A,33,13,6,end,Zone1,timelimit_screen,149.920000000013,NaN,NaN,,NaN,0,1,0,NaN,NaN,1,NaN,NaN,trial_left,redBox.png,yellowBox.png,redBox.png,al1_con.png,63,32,NaN,NaN,0.85,0.15,1,0,0,0,Stable,Volatile,2.739,1.13,0.815,1.387,expert
164,1671223622353,16/12/2022 20:47:02,1671223624557,0,16/12/2022 20:47:04,109680,37,task-v1fs,repeat-u7ds#1->-repeat-l3h2#1->-repeat-pi7a#1->-repeat-apgu#1,25998812,BLIND,7674790,NaN,complete,NaN,NaN,computer,Desktop or Laptop,Windows 10,Firefox 107.0,1536x864,1536x864,End of Day 1,SLS,90,B,NaN,NaN,NaN,Pass,End of Day 1,Pass,NaN,Pass,NaN,Pass,schedule_A,schedule_A,34,20,1,Screen 1,Zone1,continue_button,488,NaN,NaN,,NaN,0,1,0,NaN,NaN,NaN,NaN,NaN,trial_right,redBox.png,redBox.png,yellowBox.png,al1_con.png,64,33,NaN,NaN,0.85,0.15,1,0,0,1,Stable,Volatile,3.672,0.828,0.513,2.059,expert
165,1671223623361,16/12/2022 20:47:03,1671223625554,0,16/12/2022 20:47:05,109680,37,task-v1fs,repeat-u7ds#1->-repeat-l3h2#1->-repeat-pi7a#1->-repeat-apgu#1,25998812,BLIND,7674790,NaN,complete,NaN,NaN,computer,Desktop or Laptop,Windows 10,Firefox 107.0,1536x864,1536x864,End of Day 1,SLS,90,B,NaN,NaN,NaN,Pass,End of Day 1,Pass,NaN,Pass,NaN,Pass,schedule_A,schedule_A,34,20,2,individual,Zone4,timelimit_screen,999.880000000005,NaN,NaN,,NaN,0,1,0,NaN,NaN,1,NaN,NaN,trial_right,redBox.png,redBox.png,yellowBox.png,al1_con.png,64,33,NaN,NaN,0.85,0.15,1,0,0,1,Stable,Volatile,3.672,0.828,0.513,2.059,expert
166,1671223623548,16/12/2022 20:47:03,1671223625746,0,16/12/2022 20:47:05,109680,37,task-v1fs,repeat-u7ds#1->-repeat-l3h2#1->-repeat-pi7a#1->-repeat-apgu#1,25998812,BLIND,7674790,NaN,complete,NaN,NaN,computer,Desktop or Laptop,Windows 10,Firefox 107.0,1536x864,1536x864,End of Day 1,SLS,90,B,NaN,NaN,NaN,Pass,End of Day 1,Pass,NaN,Pass,NaN,Pass,schedule_A,schedule_A,34,20,3,offer,Zone2,response_button_image,183,NaN,NaN,redBox.png,1,1,0,0,NaN,NaN,NaN,NaN,NaN,trial_right,redBox.png,redBox.png,yellowBox.png,al1_con.png,64,33,NaN,NaN,0.85,0.15,1,0,0,1,Stable,Volatile,3.672,0.828,0.513,2.059,expert
167,1671223625542,16/12/2022 20:47:05,1671223627739,0,16/12/2022 20:47:07,109680,37,task-v1fs,repeat-u7ds#1->-repeat-l3h2#1->-repeat-pi7a#1->-repeat-apgu#1,25998812,BLIND,7674790,NaN,complete,NaN,NaN,computer,Desktop or Laptop,Windows 10,Firefox 107.0,1536x864,1536x864,End of Day 1,SLS,90,B,NaN,NaN,NaN,Pass,End of Day 1,Pass,NaN,Pass,NaN,Pass,schedule_A,schedule_A,34,20,4,feedback_l,Zone7,timelimit_screen,1999.82000000001,NaN,NaN,,NaN,0,1,0,NaN,NaN,1,NaN,NaN,trial_right,redBox.png,redBox.png,yellowBox.png,al1_con.png,64,33,NaN,NaN,0.85,0.15,1,0,0,1,Stable,Volatile,3.672,0.828,0.513,2.059,expert
