EventIndex,UTCTimestamp,UTCDate,LocalTimestamp,LocalTimezone,LocalDate,ExperimentID,ExperimentVersion,TreeNodeKey,RepeatKey,ScheduleID,ParticipantPublicID,ParticipantPrivateID,ParticipantStartingGroup,ParticipantStatus,ParticipantCompletionCode,ParticipantExternalSessionID,ParticipantDeviceType,ParticipantDevice,ParticipantOS,ParticipantBrowser,ParticipantMonitorSize,ParticipantViewportSize,Checkpoint,TaskName,TaskVersion,randomiser_6z9f,branch_kxy7,checkpoint_tqwf,branch_rtog,branch_7dgx,checkpoint_mqen,branch_yx2c,branch_3n8o,branch_f1s6,branch_x6l7,branch_21hs,Spreadsheet,SpreadsheetName,SpreadsheetRow,TrialNumber,ScreenNumber,ScreenName,ZoneName,ZoneType,ReactionTime,ReactionOnset,ResponseType,Response,Attempt,Correct,Incorrect,Dishonest,XCoordinate,YCoordinate,TimedOut,randomise_blocks,randomise_trials,display,ANSWER,left_button,right_button,advice,orderno,trialno,ShowProgressBar,image,prob_blue_corr,prob_group_corr,corr_ans,group_corr,group_choice,blue_pos,indiv_vol,soc_vol,ITI_1,ITI_2,ITI_3,ITI_4,condition
1,1671202436410,16/12/2022 14:53:56,1671202436287,0,16/12/2022 14:53:56,109680,37,task-xjip,repeat-7g8d#1->-repeat-38fk#1,25992695,BLIND,7678063,NaN,complete,NaN,NaN,computer,Desktop or Laptop,Mac OS 10.15.7,Safari 14.1.2,1920x1080,1920x1000,End of Day 1,SLS,90,A,Pass,End of Day 1,Pass,NaN,NaN,NaN,Pass,NaN,Pass,NaN,schedule_A,,NaN,NaN,NaN,,,,NaN,NaN,NaN,,NaN,0,1,0,NaN,NaN,NaN,NaN,NaN,,,,,,NaN,NaN,NaN,NaN,NaN,NaN,NaN,NaN,NaN,NaN,,,NaN,NaN,NaN,NaN,
2,1671202438984,16/12/2022 14:53:58,1671202438895,0,16/12/2022 14:53:58,109680,37,task-xjip,repeat-7g8d#1->-repeat-38fk#1,25992695,BLIND,7678063,NaN,complete,NaN,NaN,computer,Desktop or Laptop,Mac OS 10.15.7,Safari 14.1.2,1920x1080,1920x1000,End of Day 1,SLS,90,A,Pass,End of Day 1,Pass,NaN,NaN,NaN,Pass,NaN,Pass,NaN,schedule_A,schedule_A,1,1,1,Screen 1,Zone1,continue_button,2056,NaN,NaN,,NaN,0,1,0,NaN,NaN,NaN,NaN,NaN,getReady,,,,,1,NaN,NaN,NaN,NaN,NaN,NaN,NaN,NaN,NaN,,,NaN,NaN,NaN,NaN,
3,1671202440488,16/12/2022 14:54:00,1671202440412,0,16/12/2022 14:54:00,109680,37,task-xjip,repeat-7g8d#1->-repeat-38fk#1,25992695,BLIND,7678063,NaN,complete,NaN,NaN,computer,Desktop or Laptop,Mac OS 10.15.7,Safari 14.1.2,1920x1080,1920x1000,End of Day 1,SLS,90,A,Pass,End of Day 1,Pass,NaN,NaN,NaN,Pass,NaN,Pass,NaN,schedule_A,schedule_A,1,1,2,Screen 2,Zone1,continue_button,1508,NaN,NaN,,NaN,0,1,0,NaN,NaN,NaN,NaN,NaN,getReady,,,,,1,NaN,NaN,NaN,NaN,NaN,NaN,NaN,NaN,NaN,,,NaN,NaN,NaN,NaN,
4,1671202446225,16/12/2022 14:54:06,1671202446059,0,16/12/2022 14:54:06,109680,37,task-xjip,repeat-7g8d#1->-repeat-38fk#1,25992695,BLIND,7678063,NaN,complete,NaN,NaN,computer,Desktop or Laptop,Mac OS 10.15.7,Safari 14.1.2,1920x1080,1920x1000,End of Day 1,SLS,90,A,Pass,End of Day 1,Pass,NaN,NaN,NaN,Pass,NaN,Pass,NaN,schedule_A,schedule_A,2,1,1,Screen 1,Zone1,continue_button,5621,NaN,NaN,,NaN,0,1,0,NaN,NaN,NaN,NaN,NaN,trial_right,redBox.png,yellowBox.png,redBox.png,al1_con.png,2,1,NaN,NaN,0.85,0.85,1,1,1,0,Volatile,Stable,3.471,0.525,1.66,2.529,expert
5,1671202447118,16/12/2022 14:54:07,1671202447046,0,16/12/2022 14:54:07,109680,37,task-xjip,repeat-7g8d#1->-repeat-38fk#1,25992695,BLIND,7678063,NaN,complete,NaN,NaN,computer,Desktop or Laptop,Mac OS 10.15.7,Safari 14.1.2,1920x1080,1920x1000,End of Day 1,SLS,90,A,Pass,End of Day 1,Pass,NaN,NaN,NaN,Pass,NaN,Pass,NaN,schedule_A,schedule_A,2,1,2,individual,Zone4,timelimit_screen,1000,NaN,NaN,,NaN,0,1,0,NaN,NaN,1,NaN,NaN,trial_right,redBox.png,yellowBox.png,redBox.png,al1_con.png,2,1,NaN,NaN,0.85,0.85,1,1,1,0,Volatile,Stable,3.471,0.525,1.66,2.529,expert
6,1671202448352,16/12/2022 14:54:08,1671202448288,0,16/12/2022 14:54:08,109680,37,task-xjip,repeat-7g8d#1->-repeat-38fk#1,25992695,BLIND,7678063,NaN,complete,NaN,NaN,computer,Desktop or Laptop,Mac OS 10.15.7,Safari 14.1.2,1920x1080,1920x1000,End of Day 1,SLS,90,A,Pass,End of Day 1,Pass,NaN,NaN,NaN,Pass,NaN,Pass,NaN,schedule_A,schedule_A,2,1,3,offer,Zone3,response_button_image,1230,NaN,NaN,redBox.png,1,1,0,0,NaN,NaN,NaN,NaN,NaN,trial_right,redBox.png,yellowBox.png,redBox.png,al1_con.png,2,1,NaN,NaN,0.85,0.85,1,1,1,0,Volatile,Stable,3.471,0.525,1.66,2.529,expert
7,1671202450364,16/12/2022 14:54:10,1671202450279,0,16/12/2022 14:54:10,109680,37,task-xjip,repeat-7g8d#1->-repeat-38fk#1,25992695,BLIND,7678063,NaN,complete,NaN,NaN,computer,Desktop or Laptop,Mac OS 10.15.7,Safari 14.1.2,1920x1080,1920x1000,End of Day 1,SLS,90,A,Pass,End of Day 1,Pass,NaN,NaN,NaN,Pass,NaN,Pass,NaN,schedule_A,schedule_A,2,1,5,feedback_r,Zone7,timelimit_screen,2000,NaN,NaN,,NaN,0,1,0,NaN,NaN,1,NaN,NaN,trial_right,redBox.png,yellowBox.png,redBox.png,al1_con.png,2,1,NaN,NaN,0.85,0.85,1,1,1,0,Volatile,Stable,3.471,0.525,1.66,2.529,expert
8,1671202450493,16/12/2022 14:54:10,1671202450428,0,16/12/2022 14:54:10,109680,37,task-xjip,repeat-7g8d#1->-repeat-38fk#1,25992695,BLIND,7678063,NaN,complete,NaN,NaN,computer,Desktop or Laptop,Mac OS 10.15.7,Safari 14.1.2,1920x1080,1920x1000,End of Day 1,SLS,90,A,Pass,End of Day 1,Pass,NaN,NaN,NaN,Pass,NaN,Pass,NaN,schedule_A,schedule_A,2,1,6,end,Zone1,timelimit_screen,150,NaN,NaN,,NaN,0,1,0,NaN,NaN,1,NaN,NaN,trial_right,redBox.png,yellowBox.png,redBox.png,al1_con.png,2,1,NaN,NaN,0.85,0.85,1,1,1,0,Volatile,Stable,3.471,0.525,1.66,2.529,expert
9,1671202452263,16/12/2022 14:54:12,1671202452192,0,16/12/2022 14:54:12,109680,37,task-xjip,repeat-7g8d#1->-repeat-38fk#1,25992695,BLIND,7678063,NaN,complete,NaN,NaN,computer,Desktop or Laptop,Mac OS 10.15.7,Safari 14.1.2,1920x1080,1920x1000,End of Day 1,SLS,90,A,Pass,End of Day 1,Pass,NaN,NaN,NaN,Pass,NaN,Pass,NaN,schedule_A,schedule_A,3,1,1,Screen 1,Zone1,continue_button,1741,NaN,NaN,,NaN,0,1,0,NaN,NaN,NaN,NaN,NaN,trial_left,redBox.png,redBox.png,yellowBox.png,al1_con.png,3,2,NaN,NaN,0.85,0.85,1,1,1,1,Volatile,Stable,1.782,1.168,1.168,2.462,expert
10,1671202453274,16/12/2022 14:54:13,1671202453179,0,16/12/2022 14:54:13,109680,37,task-xjip,repeat-7g8d#1->-repeat-38fk#1,25992695,BLIND,7678063,NaN,complete,NaN,NaN,computer,Desktop or Laptop,Mac OS 10.15.7,Safari 14.1.2,1920x1080,1920x1000,End of Day 1,SLS,90,A,Pass,End of Day 1,Pass,NaN,NaN,NaN,Pass,NaN,Pass,NaN,schedule_A,schedule_A,3,1,2,individual,Zone4,timelimit_screen,1000,NaN,NaN,,NaN,0,1,0,NaN,NaN,1,NaN,NaN,trial_left,redBox.png,redBox.png,yellowBox.png,al1_con.png,3,2,NaN,NaN,0.85,0.85,1,1,1,1,Volatile,Stable,1.782,1.168,1.168,2.462,expert
11,1671202453807,16/12/2022 14:54:13,1671202453697,0,16/12/2022 14:54:13,109680,37,task-xjip,repeat-7g8d#1->-repeat-38fk#1,25992695,BLIND,7678063,NaN,complete,NaN,NaN,computer,Desktop or Laptop,Mac OS 10.15.7,Safari 14.1.2,1920x1080,1920x1000,End of Day 1,SLS,90,A,Pass,End of Day 1,Pass,NaN,NaN,NaN,Pass,NaN,Pass,NaN,schedule_A,schedule_A,3,1,3,offer,Zone2,response_button_image,508,NaN,NaN,redBox.png,1,1,0,0,NaN,NaN,NaN,NaN,NaN,trial_left,redBox.png,redBox.png,yellowBox.png,al1_con.png,3,2,NaN,NaN,0.85,0.85,1,1,1,1,Volatile,Stable,1.782,1.168,1.168,2.462,expert
12,1671202455759,16/12/2022 14:54:15,1671202455695,0,16/12/2022 14:54:15,109680,37,task-xjip,repeat-7g8d#1->-repeat-38fk#1,25992695,BLIND,7678063,NaN,complete,NaN,NaN,computer,Desktop or Laptop,Mac OS 10.15.7,Safari 14.1.2,1920x1080,1920x1000,End of Day 1,SLS,90,A,Pass,End of Day 1,Pass,NaN,NaN,NaN,Pass,NaN,Pass,NaN,schedule_A,schedule_A,3,1,4,feedback_l,Zone7,timelimit_screen,2000,NaN,NaN,,NaN,0,1,0,NaN,NaN,1,NaN,NaN,trial_left,redBox.png,redBox.png,yellowBox.png,al1_con.png,3,2,NaN,NaN,0.85,0.85,1,1,1,1,Volatile,Stable,1.782,1.168,1.168,2.462,expert
13,1671202455912,16/12/2022 14:54:15,1671202455845,0,16/12/2022 14:54:15,109680,37,task-xjip,repeat-7g8d#1->-repeat-38fk#1,25992695,BLIND,7678063,NaN,complete,NaN,NaN,computer,Desktop or Laptop,Mac OS 10.15.7,Safari 14.1.2,1920x1080,1920x1000,End of Day 1,SLS,90,A,Pass,End of Day 1,Pass,NaN,NaN,NaN,Pass,NaN,Pass,NaN,schedule_A,schedule_A,3,1,6,end,Zone1,timelimit_screen,150,NaN,NaN,,NaN,0,1,0,NaN,NaN,1,NaN,NaN,trial_left,redBox.png,redBox.png,yellowBox.png,al1_con.png,3,2,NaN,NaN,0.85,0.85,1,1,1,1,Volatile,Stable,1.782,1.168,1.168,2.462,expert
14,1671202457685,16/12/2022 14:54:17,1671202457625,0,16/12/2022 14:54:17,109680,37,task-xjip,repeat-7g8d#1->-repeat-38fk#1,25992695,BLIND,7678063,NaN,complete,NaN,NaN,computer,Desktop or Laptop,Mac OS 10.15.7,Safari 14.1.2,1920x1080,1920x1000,End of Day 1,SLS,90,A,Pass,End of Day 1,Pass,NaN,NaN,NaN,Pass,NaN,Pass,NaN,schedule_A,schedule_A,4,2,1,Screen 1,Zone1,continue_button,1758,NaN,NaN,,NaN,0,1,0,NaN,NaN,NaN,NaN,NaN,trial_right,redBox.png,yellowBox.png,redBox.png,al1_con.png,4,3,NaN,NaN,0.85,0.85,1,1,1,0,Volatile,Stable,1.983,1.181,0.538,1.588,expert
15,1671202458683,16/12/2022 14:54:18,1671202458613,0,16/12/2022 14:54:18,109680,37,task-xjip,repeat-7g8d#1->-repeat-38fk#1,25992695,BLIND,7678063,NaN,complete,NaN,NaN,computer,Desktop or Laptop,Mac OS 10.15.7,Safari 14.1.2,1920x1080,1920x1000,End of Day 1,SLS,90,A,Pass,End of Day 1,Pass,NaN,NaN,NaN,Pass,NaN,Pass,NaN,schedule_A,schedule_A,4,2,2,individual,Zone4,timelimit_screen,1000,NaN,NaN,,NaN,0,1,0,NaN,NaN,1,NaN,NaN,trial_right,redBox.png,yellowBox.png,redBox.png,al1_con.png,4,3,NaN,NaN,0.85,0.85,1,1,1,0,Volatile,Stable,1.983,1.181,0.538,1.588,expert
16,1671202460357,16/12/2022 14:54:20,1671202460280,0,16/12/2022 14:54:20,109680,37,task-xjip,repeat-7g8d#1->-repeat-38fk#1,25992695,BLIND,7678063,NaN,complete,NaN,NaN,computer,Desktop or Laptop,Mac OS 10.15.7,Safari 14.1.2,1920x1080,1920x1000,End of Day 1,SLS,90,A,Pass,End of Day 1,Pass,NaN,NaN,NaN,Pass,NaN,Pass,NaN,schedule_A,schedule_A,4,2,3,offer,Zone3,response_button_image,1655,NaN,NaN,redBox.png,1,1,0,0,NaN,NaN,NaN,NaN,NaN,trial_right,redBox.png,yellowBox.png,redBox.png,al1_con.png,4,3,NaN,NaN,0.85,0.85,1,1,1,0,Volatile,Stable,1.983,1.181,0.538,1.588,expert
17,1671202462340,16/12/2022 14:54:22,1671202462261,0,16/12/2022 14:54:22,109680,37,task-xjip,repeat-7g8d#1->-repeat-38fk#1,25992695,BLIND,7678063,NaN,complete,NaN,NaN,computer,Desktop or Laptop,Mac OS 10.15.7,Safari 14.1.2,1920x1080,1920x1000,End of Day 1,SLS,90,A,Pass,End of Day 1,Pass,NaN,NaN,NaN,Pass,NaN,Pass,NaN,schedule_A,schedule_A,4,2,5,feedback_r,Zone7,timelimit_screen,2000,NaN,NaN,,NaN,0,1,0,NaN,NaN,1,NaN,NaN,trial_right,redBox.png,yellowBox.png,redBox.png,al1_con.png,4,3,NaN,NaN,0.85,0.85,1,1,1,0,Volatile,Stable,1.983,1.181,0.538,1.588,expert
18,1671202462542,16/12/2022 14:54:22,1671202462411,0,16/12/2022 14:54:22,109680,37,task-xjip,repeat-7g8d#1->-repeat-38fk#1,25992695,BLIND,7678063,NaN,complete,NaN,NaN,computer,Desktop or Laptop,Mac OS 10.15.7,Safari 14.1.2,1920x1080,1920x1000,End of Day 1,SLS,90,A,Pass,End of Day 1,Pass,NaN,NaN,NaN,Pass,NaN,Pass,NaN,schedule_A,schedule_A,4,2,6,end,Zone1,timelimit_screen,150,NaN,NaN,,NaN,0,1,0,NaN,NaN,1,NaN,NaN,trial_right,redBox.png,yellowBox.png,redBox.png,al1_con.png,4,3,NaN,NaN,0.85,0.85,1,1,1,0,Volatile,Stable,1.983,1.181,0.538,1.588,expert
19,1671202463740,16/12/2022 14:54:23,1671202463678,0,16/12/2022 14:54:23,109680,37,task-xjip,repeat-7g8d#1->-repeat-38fk#1,25992695,BLIND,7678063,NaN,complete,NaN,NaN,computer,Desktop or Laptop,Mac OS 10.15.7,Safari 14.1.2,1920x1080,1920x1000,End of Day 1,SLS,90,A,Pass,End of Day 1,Pass,NaN,NaN,NaN,Pass,NaN,Pass,NaN,schedule_A,schedule_A,5,3,1,Screen 1,Zone1,continue_button,1246,NaN,NaN,,NaN,0,1,0,NaN,NaN,NaN,NaN,NaN,trial_right,redBox.png,yellowBox.png,redBox.png,al1_con.png,5,4,NaN,NaN,0.85,0.85,1,1,1,0,Volatile,Stable,1.529,0.891,1.004,1,expert
20,1671202464720,16/12/2022 14:54:24,1671202464662,0,16/12/2022 14:54:24,109680,37,task-xjip,repeat-7g8d#1->-repeat-38fk#1,25992695,BLIND,7678063,NaN,complete,NaN,NaN,computer,Desktop or Laptop,Mac OS 10.15.7,Safari 14.1.2,1920x1080,1920x1000,End of Day 1,SLS,90,A,Pass,End of Day 1,Pass,NaN,NaN,NaN,Pass,NaN,Pass,NaN,schedule_A,schedule_A,5,3,2,individual,Zone4,timelimit_screen,1001,NaN,NaN,,NaN,0,1,0,NaN,NaN,1,NaN,NaN,trial_right,redBox.png,yellowBox.png,redBox.png,al1_con.png,5,4,NaN,NaN,0.85,0.85,1,1,1,0,Volatile,Stable,1.529,0.891,1.004,1,expert
21,1671202465203,16/12/2022 14:54:25,1671202465128,0,16/12/2022 14:54:25,109680,37,task-xjip,repeat-7g8d#1->-repeat-38fk#1,25992695,BLIND,7678063,NaN,complete,NaN,NaN,computer,Desktop or Laptop,Mac OS 10.15.7,Safari 14.1.2,1920x1080,1920x1000,End of Day 1,SLS,90,A,Pass,End of Day 1,Pass,NaN,NaN,NaN,Pass,NaN,Pass,NaN,schedule_A,schedule_A,5,3,3,offer,Zone3,response_button_image,456,NaN,NaN,redBox.png,1,1,0,0,NaN,NaN,NaN,NaN,NaN,trial_right,redBox.png,yellowBox.png,redBox.png,al1_con.png,5,4,NaN,NaN,0.85,0.85,1,1,1,0,Volatile,Stable,1.529,0.891,1.004,1,expert
22,1671202467182,16/12/2022 14:54:27,1671202467111,0,16/12/2022 14:54:27,109680,37,task-xjip,repeat-7g8d#1->-repeat-38fk#1,25992695,BLIND,7678063,NaN,complete,NaN,NaN,computer,Desktop or Laptop,Mac OS 10.15.7,Safari 14.1.2,1920x1080,1920x1000,End of Day 1,SLS,90,A,Pass,End of Day 1,Pass,NaN,NaN,NaN,Pass,NaN,Pass,NaN,schedule_A,schedule_A,5,3,5,feedback_r,Zone7,timelimit_screen,2000,NaN,NaN,,NaN,0,1,0,NaN,NaN,1,NaN,NaN,trial_right,redBox.png,yellowBox.png,redBox.png,al1_con.png,5,4,NaN,NaN,0.85,0.85,1,1,1,0,Volatile,Stable,1.529,0.891,1.004,1,expert
23,1671202467331,16/12/2022 14:54:27,1671202467262,0,16/12/2022 14:54:27,109680,37,task-xjip,repeat-7g8d#1->-repeat-38fk#1,25992695,BLIND,7678063,NaN,complete,NaN,NaN,computer,Desktop or Laptop,Mac OS 10.15.7,Safari 14.1.2,1920x1080,1920x1000,End of Day 1,SLS,90,A,Pass,End of Day 1,Pass,NaN,NaN,NaN,Pass,NaN,Pass,NaN,schedule_A,schedule_A,5,3,6,end,Zone1,timelimit_screen,151,NaN,NaN,,NaN,0,1,0,NaN,NaN,1,NaN,NaN,trial_right,redBox.png,yellowBox.png,redBox.png,al1_con.png,5,4,NaN,NaN,0.85,0.85,1,1,1,0,Volatile,Stable,1.529,0.891,1.004,1,expert
24,1671202468522,16/12/2022 14:54:28,1671202468457,0,16/12/2022 14:54:28,109680,37,task-xjip,repeat-7g8d#1->-repeat-38fk#1,25992695,BLIND,7678063,NaN,complete,NaN,NaN,computer,Desktop or Laptop,Mac OS 10.15.7,Safari 14.1.2,1920x1080,1920x1000,End of Day 1,SLS,90,A,Pass,End of Day 1,Pass,NaN,NaN,NaN,Pass,NaN,Pass,NaN,schedule_A,schedule_A,6,2,1,Screen 1,Zone1,continue_button,1176,NaN,NaN,,NaN,0,1,0,NaN,NaN,NaN,NaN,NaN,trial_left,redBox.png,redBox.png,yellowBox.png,al1_con.png,6,5,NaN,NaN,0.85,0.85,1,1,1,1,Volatile,Stable,1.832,1.118,0.752,1.79,expert
25,1671202469564,16/12/2022 14:54:29,1671202469446,0,16/12/2022 14:54:29,109680,37,task-xjip,repeat-7g8d#1->-repeat-38fk#1,25992695,BLIND,7678063,NaN,complete,NaN,NaN,computer,Desktop or Laptop,Mac OS 10.15.7,Safari 14.1.2,1920x1080,1920x1000,End of Day 1,SLS,90,A,Pass,End of Day 1,Pass,NaN,NaN,NaN,Pass,NaN,Pass,NaN,schedule_A,schedule_A,6,2,2,individual,Zone4,timelimit_screen,1000,NaN,NaN,,NaN,0,1,0,NaN,NaN,1,NaN,NaN,trial_left,redBox.png,redBox.png,yellowBox.png,al1_con.png,6,5,NaN,NaN,0.85,0.85,1,1,1,1,Volatile,Stable,1.832,1.118,0.752,1.79,expert
26,1671202470063,16/12/2022 14:54:30,1671202469943,0,16/12/2022 14:54:29,109680,37,task-xjip,repeat-7g8d#1->-repeat-38fk#1,25992695,BLIND,7678063,NaN,complete,NaN,NaN,computer,Desktop or Laptop,Mac OS 10.15.7,Safari 14.1.2,1920x1080,1920x1000,End of Day 1,SLS,90,A,Pass,End of Day 1,Pass,NaN,NaN,NaN,Pass,NaN,Pass,NaN,schedule_A,schedule_A,6,2,3,offer,Zone2,response_button_image,485,NaN,NaN,redBox.png,1,1,0,0,NaN,NaN,NaN,NaN,NaN,trial_left,redBox.png,redBox.png,yellowBox.png,al1_con.png,6,5,NaN,NaN,0.85,0.85,1,1,1,1,Volatile,Stable,1.832,1.118,0.752,1.79,expert
27,1671202471992,16/12/2022 14:54:31,1671202471929,0,16/12/2022 14:54:31,109680,37,task-xjip,repeat-7g8d#1->-repeat-38fk#1,25992695,BLIND,7678063,NaN,complete,NaN,NaN,computer,Desktop or Laptop,Mac OS 10.15.7,Safari 14.1.2,1920x1080,1920x1000,End of Day 1,SLS,90,A,Pass,End of Day 1,Pass,NaN,NaN,NaN,Pass,NaN,Pass,NaN,schedule_A,schedule_A,6,2,4,feedback_l,Zone7,timelimit_screen,2001,NaN,NaN,,NaN,0,1,0,NaN,NaN,1,NaN,NaN,trial_left,redBox.png,redBox.png,yellowBox.png,al1_con.png,6,5,NaN,NaN,0.85,0.85,1,1,1,1,Volatile,Stable,1.832,1.118,0.752,1.79,expert
28,1671202472140,16/12/2022 14:54:32,1671202472078,0,16/12/2022 14:54:32,109680,37,task-xjip,repeat-7g8d#1->-repeat-38fk#1,25992695,BLIND,7678063,NaN,complete,NaN,NaN,computer,Desktop or Laptop,Mac OS 10.15.7,Safari 14.1.2,1920x1080,1920x1000,End of Day 1,SLS,90,A,Pass,End of Day 1,Pass,NaN,NaN,NaN,Pass,NaN,Pass,NaN,schedule_A,schedule_A,6,2,6,end,Zone1,timelimit_screen,149,NaN,NaN,,NaN,0,1,0,NaN,NaN,1,NaN,NaN,trial_left,redBox.png,redBox.png,yellowBox.png,al1_con.png,6,5,NaN,NaN,0.85,0.85,1,1,1,1,Volatile,Stable,1.832,1.118,0.752,1.79,expert
29,1671202473040,16/12/2022 14:54:33,1671202472979,0,16/12/2022 14:54:32,109680,37,task-xjip,repeat-7g8d#1->-repeat-38fk#1,25992695,BLIND,7678063,NaN,complete,NaN,NaN,computer,Desktop or Laptop,Mac OS 10.15.7,Safari 14.1.2,1920x1080,1920x1000,End of Day 1,SLS,90,A,Pass,End of Day 1,Pass,NaN,NaN,NaN,Pass,NaN,Pass,NaN,schedule_A,schedule_A,7,4,1,Screen 1,Zone1,continue_button,886.000000000007,NaN,NaN,,NaN,0,1,0,NaN,NaN,NaN,NaN,NaN,trial_right,yellowBox.png,redBox.png,yellowBox.png,al1_con.png,7,6,NaN,NaN,0.15,0.85,0,1,0,1,Volatile,Stable,3.294,0.815,1.282,2.664,expert
30,1671202474038,16/12/2022 14:54:34,1671202473979,0,16/12/2022 14:54:33,109680,37,task-xjip,repeat-7g8d#1->-repeat-38fk#1,25992695,BLIND,7678063,NaN,complete,NaN,NaN,computer,Desktop or Laptop,Mac OS 10.15.7,Safari 14.1.2,1920x1080,1920x1000,End of Day 1,SLS,90,A,Pass,End of Day 1,Pass,NaN,NaN,NaN,Pass,NaN,Pass,NaN,schedule_A,schedule_A,7,4,2,individual,Zone4,timelimit_screen,1001,NaN,NaN,,NaN,0,1,0,NaN,NaN,1,NaN,NaN,trial_right,yellowBox.png,redBox.png,yellowBox.png,al1_con.png,7,6,NaN,NaN,0.15,0.85,0,1,0,1,Volatile,Stable,3.294,0.815,1.282,2.664,expert
31,1671202476198,16/12/2022 14:54:36,1671202476142,0,16/12/2022 14:54:36,109680,37,task-xjip,repeat-7g8d#1->-repeat-38fk#1,25992695,BLIND,7678063,NaN,complete,NaN,NaN,computer,Desktop or Laptop,Mac OS 10.15.7,Safari 14.1.2,1920x1080,1920x1000,End of Day 1,SLS,90,A,Pass,End of Day 1,Pass,NaN,NaN,NaN,Pass,NaN,Pass,NaN,schedule_A,schedule_A,7,4,3,offer,Zone2,response_button_image,2156,NaN,NaN,redBox.png,1,0,1,0,NaN,NaN,NaN,NaN,NaN,trial_right,yellowBox.png,redBox.png,yellowBox.png,al1_con.png,7,6,NaN,NaN,0.15,0.85,0,1,0,1,Volatile,Stable,3.294,0.815,1.282,2.664,expert
32,1671202478190,16/12/2022 14:54:38,1671202478130,0,16/12/2022 14:54:38,109680,37,task-xjip,repeat-7g8d#1->-repeat-38fk#1,25992695,BLIND,7678063,NaN,complete,NaN,NaN,computer,Desktop or Laptop,Mac OS 10.15.7,Safari 14.1.2,1920x1080,1920x1000,End of Day 1,SLS,90,A,Pass,End of Day 1,Pass,NaN,NaN,NaN,Pass,NaN,Pass,NaN,schedule_A,schedule_A,7,4,4,feedback_l,Zone7,timelimit_screen,2001,NaN,NaN,,NaN,0,1,0,NaN,NaN,1,NaN,NaN,trial_right,yellowBox.png,redBox.png,yellowBox.png,al1_con.png,7,6,NaN,NaN,0.15,0.85,0,1,0,1,Volatile,Stable,3.294,0.815,1.282,2.664,expert
33,1671202478339,16/12/2022 14:54:38,1671202478278,0,16/12/2022 14:54:38,109680,37,task-xjip,repeat-7g8d#1->-repeat-38fk#1,25992695,BLIND,7678063,NaN,complete,NaN,NaN,computer,Desktop or Laptop,Mac OS 10.15.7,Safari 14.1.2,1920x1080,1920x1000,End of Day 1,SLS,90,A,Pass,End of Day 1,Pass,NaN,NaN,NaN,Pass,NaN,Pass,NaN,schedule_A,schedule_A,7,4,6,end,Zone1,timelimit_screen,149,NaN,NaN,,NaN,0,1,0,NaN,NaN,1,NaN,NaN,trial_right,yellowBox.png,redBox.png,yellowBox.png,al1_con.png,7,6,NaN,NaN,0.15,0.85,0,1,0,1,Volatile,Stable,3.294,0.815,1.282,2.664,expert
34,1671202479333,16/12/2022 14:54:39,1671202479261,0,16/12/2022 14:54:39,109680,37,task-xjip,repeat-7g8d#1->-repeat-38fk#1,25992695,BLIND,7678063,NaN,complete,NaN,NaN,computer,Desktop or Laptop,Mac OS 10.15.7,Safari 14.1.2,1920x1080,1920x1000,End of Day 1,SLS,90,A,Pass,End of Day 1,Pass,NaN,NaN,NaN,Pass,NaN,Pass,NaN,schedule_A,schedule_A,8,3,1,Screen 1,Zone1,continue_button,966,NaN,NaN,,NaN,0,1,0,NaN,NaN,NaN,NaN,NaN,trial_left,yellowBox.png,yellowBox.png,redBox.png,al1_con.png,8,7,NaN,NaN,0.15,0.85,0,1,0,0,Volatile,Stable,3.269,1.37,1.786,2.328,expert
35,1671202480311,16/12/2022 14:54:40,1671202480247,0,16/12/2022 14:54:40,109680,37,task-xjip,repeat-7g8d#1->-repeat-38fk#1,25992695,BLIND,7678063,NaN,complete,NaN,NaN,computer,Desktop or Laptop,Mac OS 10.15.7,Safari 14.1.2,1920x1080,1920x1000,End of Day 1,SLS,90,A,Pass,End of Day 1,Pass,NaN,NaN,NaN,Pass,NaN,Pass,NaN,schedule_A,schedule_A,8,3,2,individual,Zone4,timelimit_screen,1000,NaN,NaN,,NaN,0,1,0,NaN,NaN,1,NaN,NaN,trial_left,yellowBox.png,yellowBox.png,redBox.png,al1_con.png,8,7,NaN,NaN,0.15,0.85,0,1,0,0,Volatile,Stable,3.269,1.37,1.786,2.328,expert
36,1671202480777,16/12/2022 14:54:40,1671202480721,0,16/12/2022 14:54:40,109680,37,task-xjip,repeat-7g8d#1->-repeat-38fk#1,25992695,BLIND,7678063,NaN,complete,NaN,NaN,computer,Desktop or Laptop,Mac OS 10.15.7,Safari 14.1.2,1920x1080,1920x1000,End of Day 1,SLS,90,A,Pass,End of Day 1,Pass,NaN,NaN,NaN,Pass,NaN,Pass,NaN,schedule_A,schedule_A,8,3,3,offer,Zone2,response_button_image,463,NaN,NaN,yellowBox.png,1,1,0,0,NaN,NaN,NaN,NaN,NaN,trial_left,yellowBox.png,yellowBox.png,redBox.png,al1_con.png,8,7,NaN,NaN,0.15,0.85,0,1,0,0,Volatile,Stable,3.269,1.37,1.786,2.328,expert
37,1671202482775,16/12/2022 14:54:42,1671202482713,0,16/12/2022 14:54:42,109680,37,task-xjip,repeat-7g8d#1->-repeat-38fk#1,25992695,BLIND,7678063,NaN,complete,NaN,NaN,computer,Desktop or Laptop,Mac OS 10.15.7,Safari 14.1.2,1920x1080,1920x1000,End of Day 1,SLS,90,A,Pass,End of Day 1,Pass,NaN,NaN,NaN,Pass,NaN,Pass,NaN,schedule_A,schedule_A,8,3,4,feedback_l,Zone7,timelimit_screen,2000,NaN,NaN,,NaN,0,1,0,NaN,NaN,1,NaN,NaN,trial_left,yellowBox.png,yellowBox.png,redBox.png,al1_con.png,8,7,NaN,NaN,0.15,0.85,0,1,0,0,Volatile,Stable,3.269,1.37,1.786,2.328,expert
38,1671202482982,16/12/2022 14:54:42,1671202482862,0,16/12/2022 14:54:42,109680,37,task-xjip,repeat-7g8d#1->-repeat-38fk#1,25992695,BLIND,7678063,NaN,complete,NaN,NaN,computer,Desktop or Laptop,Mac OS 10.15.7,Safari 14.1.2,1920x1080,1920x1000,End of Day 1,SLS,90,A,Pass,End of Day 1,Pass,NaN,NaN,NaN,Pass,NaN,Pass,NaN,schedule_A,schedule_A,8,3,6,end,Zone1,timelimit_screen,149,NaN,NaN,,NaN,0,1,0,NaN,NaN,1,NaN,NaN,trial_left,yellowBox.png,yellowBox.png,redBox.png,al1_con.png,8,7,NaN,NaN,0.15,0.85,0,1,0,0,Volatile,Stable,3.269,1.37,1.786,2.328,expert
39,1671202483889,16/12/2022 14:54:43,1671202483825,0,16/12/2022 14:54:43,109680,37,task-xjip,repeat-7g8d#1->-repeat-38fk#1,25992695,BLIND,7678063,NaN,complete,NaN,NaN,computer,Desktop or Laptop,Mac OS 10.15.7,Safari 14.1.2,1920x1080,1920x1000,End of Day 1,SLS,90,A,Pass,End of Day 1,Pass,NaN,NaN,NaN,Pass,NaN,Pass,NaN,schedule_A,schedule_A,9,4,1,Screen 1,Zone1,continue_button,947,NaN,NaN,,NaN,0,1,0,NaN,NaN,NaN,NaN,NaN,trial_left,yellowBox.png,redBox.png,yellowBox.png,al1_con.png,9,8,NaN,NaN,0.15,0.85,0,0,1,1,Volatile,Stable,3.975,0.576,1.256,1.807,expert
40,1671202484884,16/12/2022 14:54:44,1671202484813,0,16/12/2022 14:54:44,109680,37,task-xjip,repeat-7g8d#1->-repeat-38fk#1,25992695,BLIND,7678063,NaN,complete,NaN,NaN,computer,Desktop or Laptop,Mac OS 10.15.7,Safari 14.1.2,1920x1080,1920x1000,End of Day 1,SLS,90,A,Pass,End of Day 1,Pass,NaN,NaN,NaN,Pass,NaN,Pass,NaN,schedule_A,schedule_A,9,4,2,individual,Zone4,timelimit_screen,999,NaN,NaN,,NaN,0,1,0,NaN,NaN,1,NaN,NaN,trial_left,yellowBox.png,redBox.png,yellowBox.png,al1_con.png,9,8,NaN,NaN,0.15,0.85,0,0,1,1,Volatile,Stable,3.975,0.576,1.256,1.807,expert
41,1671202486255,16/12/2022 14:54:46,1671202486198,0,16/12/2022 14:54:46,109680,37,task-xjip,repeat-7g8d#1->-repeat-38fk#1,25992695,BLIND,7678063,NaN,complete,NaN,NaN,computer,Desktop or Laptop,Mac OS 10.15.7,Safari 14.1.2,1920x1080,1920x1000,End of Day 1,SLS,90,A,Pass,End of Day 1,Pass,NaN,NaN,NaN,Pass,NaN,Pass,NaN,schedule_A,schedule_A,9,4,3,offer,Zone2,response_button_image,1378,NaN,NaN,redBox.png,1,0,1,0,NaN,NaN,NaN,NaN,NaN,trial_left,yellowBox.png,redBox.png,yellowBox.png,al1_con.png,9,8,NaN,NaN,0.15,0.85,0,0,1,1,Volatile,Stable,3.975,0.576,1.256,1.807,expert
42,1671202488254,16/12/2022 14:54:48,1671202488196,0,16/12/2022 14:54:48,109680,37,task-xjip,repeat-7g8d#1->-repeat-38fk#1,25992695,BLIND,7678063,NaN,complete,NaN,NaN,computer,Desktop or Laptop,Mac OS 10.15.7,Safari 14.1.2,1920x1080,1920x1000,End of Day 1,SLS,90,A,Pass,End of Day 1,Pass,NaN,NaN,NaN,Pass,NaN,Pass,NaN,schedule_A,schedule_A,9,4,4,feedback_l,Zone7,timelimit_screen,2001,NaN,NaN,,NaN,0,1,0,NaN,NaN,1,NaN,NaN,trial_left,yellowBox.png,redBox.png,yellowBox.png,al1_con.png,9,8,NaN,NaN,0.15,0.85,0,0,1,1,Volatile,Stable,3.975,0.576,1.256,1.807,expert
43,1671202488421,16/12/2022 14:54:48,1671202488345,0,16/12/2022 14:54:48,109680,37,task-xjip,repeat-7g8d#1->-repeat-38fk#1,25992695,BLIND,7678063,NaN,complete,NaN,NaN,computer,Desktop or Laptop,Mac OS 10.15.7,Safari 14.1.2,1920x1080,1920x1000,End of Day 1,SLS,90,A,Pass,End of Day 1,Pass,NaN,NaN,NaN,Pass,NaN,Pass,NaN,schedule_A,schedule_A,9,4,6,end,Zone1,timelimit_screen,149,NaN,NaN,,NaN,0,1,0,NaN,NaN,1,NaN,NaN,trial_left,yellowBox.png,redBox.png,yellowBox.png,al1_con.png,9,8,NaN,NaN,0.15,0.85,0,0,1,1,Volatile,Stable,3.975,0.576,1.256,1.807,expert
44,1671202489081,16/12/2022 14:54:49,1671202489012,0,16/12/2022 14:54:49,109680,37,task-xjip,repeat-7g8d#1->-repeat-38fk#1,25992695,BLIND,7678063,NaN,complete,NaN,NaN,computer,Desktop or Laptop,Mac OS 10.15.7,Safari 14.1.2,1920x1080,1920x1000,End of Day 1,SLS,90,A,Pass,End of Day 1,Pass,NaN,NaN,NaN,Pass,NaN,Pass,NaN,schedule_A,schedule_A,10,5,1,Screen 1,Zone1,continue_button,648,NaN,NaN,,NaN,0,1,0,NaN,NaN,NaN,NaN,NaN,trial_right,redBox.png,redBox.png,yellowBox.png,al1_con.png,10,9,NaN,NaN,0.15,0.85,1,0,0,1,Volatile,Stable,3.798,1.055,1.559,2.042,expert
45,1671202490067,16/12/2022 14:54:50,1671202489996,0,16/12/2022 14:54:49,109680,37,task-xjip,repeat-7g8d#1->-repeat-38fk#1,25992695,BLIND,7678063,NaN,complete,NaN,NaN,computer,Desktop or Laptop,Mac OS 10.15.7,Safari 14.1.2,1920x1080,1920x1000,End of Day 1,SLS,90,A,Pass,End of Day 1,Pass,NaN,NaN,NaN,Pass,NaN,Pass,NaN,schedule_A,schedule_A,10,5,2,individual,Zone4,timelimit_screen,999,NaN,NaN,,NaN,0,1,0,NaN,NaN,1,NaN,NaN,trial_right,redBox.png,redBox.png,yellowBox.png,al1_con.png,10,9,NaN,NaN,0.15,0.85,1,0,0,1,Volatile,Stable,3.798,1.055,1.559,2.042,expert
46,1671202490648,16/12/2022 14:54:50,1671202490587,0,16/12/2022 14:54:50,109680,37,task-xjip,repeat-7g8d#1->-repeat-38fk#1,25992695,BLIND,7678063,NaN,complete,NaN,NaN,computer,Desktop or Laptop,Mac OS 10.15.7,Safari 14.1.2,1920x1080,1920x1000,End of Day 1,SLS,90,A,Pass,End of Day 1,Pass,NaN,NaN,NaN,Pass,NaN,Pass,NaN,schedule_A,schedule_A,10,5,3,offer,Zone3,response_button_image,581,NaN,NaN,yellowBox.png,1,0,1,0,NaN,NaN,NaN,NaN,NaN,trial_right,redBox.png,redBox.png,yellowBox.png,al1_con.png,10,9,NaN,NaN,0.15,0.85,1,0,0,1,Volatile,Stable,3.798,1.055,1.559,2.042,expert
47,1671202492650,16/12/2022 14:54:52,1671202492578,0,16/12/2022 14:54:52,109680,37,task-xjip,repeat-7g8d#1->-repeat-38fk#1,25992695,BLIND,7678063,NaN,complete,NaN,NaN,computer,Desktop or Laptop,Mac OS 10.15.7,Safari 14.1.2,1920x1080,1920x1000,End of Day 1,SLS,90,A,Pass,End of Day 1,Pass,NaN,NaN,NaN,Pass,NaN,Pass,NaN,schedule_A,schedule_A,10,5,5,feedback_r,Zone7,timelimit_screen,2000,NaN,NaN,,NaN,0,1,0,NaN,NaN,1,NaN,NaN,trial_right,redBox.png,redBox.png,yellowBox.png,al1_con.png,10,9,NaN,NaN,0.15,0.85,1,0,0,1,Volatile,Stable,3.798,1.055,1.559,2.042,expert
48,1671202492782,16/12/2022 14:54:52,1671202492729,0,16/12/2022 14:54:52,109680,37,task-xjip,repeat-7g8d#1->-repeat-38fk#1,25992695,BLIND,7678063,NaN,complete,NaN,NaN,computer,Desktop or Laptop,Mac OS 10.15.7,Safari 14.1.2,1920x1080,1920x1000,End of Day 1,SLS,90,A,Pass,End of Day 1,Pass,NaN,NaN,NaN,Pass,NaN,Pass,NaN,schedule_A,schedule_A,10,5,6,end,Zone1,timelimit_screen,151,NaN,NaN,,NaN,0,1,0,NaN,NaN,1,NaN,NaN,trial_right,redBox.png,redBox.png,yellowBox.png,al1_con.png,10,9,NaN,NaN,0.15,0.85,1,0,0,1,Volatile,Stable,3.798,1.055,1.559,2.042,expert
49,1671202493682,16/12/2022 14:54:53,1671202493613,0,16/12/2022 14:54:53,109680,37,task-xjip,repeat-7g8d#1->-repeat-38fk#1,25992695,BLIND,7678063,NaN,complete,NaN,NaN,computer,Desktop or Laptop,Mac OS 10.15.7,Safari 14.1.2,1920x1080,1920x1000,End of Day 1,SLS,90,A,Pass,End of Day 1,Pass,NaN,NaN,NaN,Pass,NaN,Pass,NaN,schedule_A,schedule_A,11,6,1,Screen 1,Zone1,continue_button,866,NaN,NaN,,NaN,0,1,0,NaN,NaN,NaN,NaN,NaN,trial_right,yellowBox.png,redBox.png,yellowBox.png,al1_con.png,21,10,NaN,NaN,0.15,0.85,0,1,0,1,Volatile,Stable,1.857,0.5,1.294,2.916,expert
50,1671202494677,16/12/2022 14:54:54,1671202494613,0,16/12/2022 14:54:54,109680,37,task-xjip,repeat-7g8d#1->-repeat-38fk#1,25992695,BLIND,7678063,NaN,complete,NaN,NaN,computer,Desktop or Laptop,Mac OS 10.15.7,Safari 14.1.2,1920x1080,1920x1000,End of Day 1,SLS,90,A,Pass,End of Day 1,Pass,NaN,NaN,NaN,Pass,NaN,Pass,NaN,schedule_A,schedule_A,11,6,2,individual,Zone4,timelimit_screen,1000,NaN,NaN,,NaN,0,1,0,NaN,NaN,1,NaN,NaN,trial_right,yellowBox.png,redBox.png,yellowBox.png,al1_con.png,21,10,NaN,NaN,0.15,0.85,0,1,0,1,Volatile,Stable,1.857,0.5,1.294,2.916,expert
51,1671202495462,16/12/2022 14:54:55,1671202495391,0,16/12/2022 14:54:55,109680,37,task-xjip,repeat-7g8d#1->-repeat-38fk#1,25992695,BLIND,7678063,NaN,complete,NaN,NaN,computer,Desktop or Laptop,Mac OS 10.15.7,Safari 14.1.2,1920x1080,1920x1000,End of Day 1,SLS,90,A,Pass,End of Day 1,Pass,NaN,NaN,NaN,Pass,NaN,Pass,NaN,schedule_A,schedule_A,11,6,3,offer,Zone2,response_button_image,768.999999999993,NaN,NaN,redBox.png,1,0,1,0,NaN,NaN,NaN,NaN,NaN,trial_right,yellowBox.png,redBox.png,yellowBox.png,al1_con.png,21,10,NaN,NaN,0.15,0.85,0,1,0,1,Volatile,Stable,1.857,0.5,1.294,2.916,expert
52,1671202497452,16/12/2022 14:54:57,1671202497381,0,16/12/2022 14:54:57,109680,37,task-xjip,repeat-7g8d#1->-repeat-38fk#1,25992695,BLIND,7678063,NaN,complete,NaN,NaN,computer,Desktop or Laptop,Mac OS 10.15.7,Safari 14.1.2,1920x1080,1920x1000,End of Day 1,SLS,90,A,Pass,End of Day 1,Pass,NaN,NaN,NaN,Pass,NaN,Pass,NaN,schedule_A,schedule_A,11,6,4,feedback_l,Zone7,timelimit_screen,2002,NaN,NaN,,NaN,0,1,0,NaN,NaN,1,NaN,NaN,trial_right,yellowBox.png,redBox.png,yellowBox.png,al1_con.png,21,10,NaN,NaN,0.15,0.85,0,1,0,1,Volatile,Stable,1.857,0.5,1.294,2.916,expert
53,1671202497583,16/12/2022 14:54:57,1671202497528,0,16/12/2022 14:54:57,109680,37,task-xjip,repeat-7g8d#1->-repeat-38fk#1,25992695,BLIND,7678063,NaN,complete,NaN,NaN,computer,Desktop or Laptop,Mac OS 10.15.7,Safari 14.1.2,1920x1080,1920x1000,End of Day 1,SLS,90,A,Pass,End of Day 1,Pass,NaN,NaN,NaN,Pass,NaN,Pass,NaN,schedule_A,schedule_A,11,6,6,end,Zone1,timelimit_screen,148,NaN,NaN,,NaN,0,1,0,NaN,NaN,1,NaN,NaN,trial_right,yellowBox.png,redBox.png,yellowBox.png,al1_con.png,21,10,NaN,NaN,0.15,0.85,0,1,0,1,Volatile,Stable,1.857,0.5,1.294,2.916,expert
54,1671202498520,16/12/2022 14:54:58,1671202498451,0,16/12/2022 14:54:58,109680,37,task-xjip,repeat-7g8d#1->-repeat-38fk#1,25992695,BLIND,7678063,NaN,complete,NaN,NaN,computer,Desktop or Laptop,Mac OS 10.15.7,Safari 14.1.2,1920x1080,1920x1000,End of Day 1,SLS,90,A,Pass,End of Day 1,Pass,NaN,NaN,NaN,Pass,NaN,Pass,NaN,schedule_A,schedule_A,12,5,1,Screen 1,Zone1,continue_button,907,NaN,NaN,,NaN,0,1,0,NaN,NaN,NaN,NaN,NaN,trial_left,redBox.png,redBox.png,yellowBox.png,al1_con.png,22,11,NaN,NaN,0.85,0.85,1,1,1,1,Volatile,Stable,1.126,1.849,1.483,1.689,expert
55,1671202499505,16/12/2022 14:54:59,1671202499446,0,16/12/2022 14:54:59,109680,37,task-xjip,repeat-7g8d#1->-repeat-38fk#1,25992695,BLIND,7678063,NaN,complete,NaN,NaN,computer,Desktop or Laptop,Mac OS 10.15.7,Safari 14.1.2,1920x1080,1920x1000,End of Day 1,SLS,90,A,Pass,End of Day 1,Pass,NaN,NaN,NaN,Pass,NaN,Pass,NaN,schedule_A,schedule_A,12,5,2,individual,Zone4,timelimit_screen,1000,NaN,NaN,,NaN,0,1,0,NaN,NaN,1,NaN,NaN,trial_left,redBox.png,redBox.png,yellowBox.png,al1_con.png,22,11,NaN,NaN,0.85,0.85,1,1,1,1,Volatile,Stable,1.126,1.849,1.483,1.689,expert
56,1671202500304,16/12/2022 14:55:00,1671202500239,0,16/12/2022 14:55:00,109680,37,task-xjip,repeat-7g8d#1->-repeat-38fk#1,25992695,BLIND,7678063,NaN,complete,NaN,NaN,computer,Desktop or Laptop,Mac OS 10.15.7,Safari 14.1.2,1920x1080,1920x1000,End of Day 1,SLS,90,A,Pass,End of Day 1,Pass,NaN,NaN,NaN,Pass,NaN,Pass,NaN,schedule_A,schedule_A,12,5,3,offer,Zone2,response_button_image,782,NaN,NaN,redBox.png,1,1,0,0,NaN,NaN,NaN,NaN,NaN,trial_left,redBox.png,redBox.png,yellowBox.png,al1_con.png,22,11,NaN,NaN,0.85,0.85,1,1,1,1,Volatile,Stable,1.126,1.849,1.483,1.689,expert
57,1671202502292,16/12/2022 14:55:02,1671202502230,0,16/12/2022 14:55:02,109680,37,task-xjip,repeat-7g8d#1->-repeat-38fk#1,25992695,BLIND,7678063,NaN,complete,NaN,NaN,computer,Desktop or Laptop,Mac OS 10.15.7,Safari 14.1.2,1920x1080,1920x1000,End of Day 1,SLS,90,A,Pass,End of Day 1,Pass,NaN,NaN,NaN,Pass,NaN,Pass,NaN,schedule_A,schedule_A,12,5,4,feedback_l,Zone7,timelimit_screen,2000,NaN,NaN,,NaN,0,1,0,NaN,NaN,1,NaN,NaN,trial_left,redBox.png,redBox.png,yellowBox.png,al1_con.png,22,11,NaN,NaN,0.85,0.85,1,1,1,1,Volatile,Stable,1.126,1.849,1.483,1.689,expert
58,1671202502445,16/12/2022 14:55:02,1671202502378,0,16/12/2022 14:55:02,109680,37,task-xjip,repeat-7g8d#1->-repeat-38fk#1,25992695,BLIND,7678063,NaN,complete,NaN,NaN,computer,Desktop or Laptop,Mac OS 10.15.7,Safari 14.1.2,1920x1080,1920x1000,End of Day 1,SLS,90,A,Pass,End of Day 1,Pass,NaN,NaN,NaN,Pass,NaN,Pass,NaN,schedule_A,schedule_A,12,5,6,end,Zone1,timelimit_screen,149,NaN,NaN,,NaN,0,1,0,NaN,NaN,1,NaN,NaN,trial_left,redBox.png,redBox.png,yellowBox.png,al1_con.png,22,11,NaN,NaN,0.85,0.85,1,1,1,1,Volatile,Stable,1.126,1.849,1.483,1.689,expert
59,1671202503136,16/12/2022 14:55:03,1671202503075,0,16/12/2022 14:55:03,109680,37,task-xjip,repeat-7g8d#1->-repeat-38fk#1,25992695,BLIND,7678063,NaN,complete,NaN,NaN,computer,Desktop or Laptop,Mac OS 10.15.7,Safari 14.1.2,1920x1080,1920x1000,End of Day 1,SLS,90,A,Pass,End of Day 1,Pass,NaN,NaN,NaN,Pass,NaN,Pass,NaN,schedule_A,schedule_A,13,7,1,Screen 1,Zone1,continue_button,681,NaN,NaN,,NaN,0,1,0,NaN,NaN,NaN,NaN,NaN,trial_right,redBox.png,yellowBox.png,redBox.png,al1_con.png,23,12,NaN,NaN,0.85,0.85,1,1,1,0,Volatile,Stable,2.361,0.992,0.5,1.975,expert
60,1671202504123,16/12/2022 14:55:04,1671202504063,0,16/12/2022 14:55:04,109680,37,task-xjip,repeat-7g8d#1->-repeat-38fk#1,25992695,BLIND,7678063,NaN,complete,NaN,NaN,computer,Desktop or Laptop,Mac OS 10.15.7,Safari 14.1.2,1920x1080,1920x1000,End of Day 1,SLS,90,A,Pass,End of Day 1,Pass,NaN,NaN,NaN,Pass,NaN,Pass,NaN,schedule_A,schedule_A,13,7,2,individual,Zone4,timelimit_screen,1000,NaN,NaN,,NaN,0,1,0,NaN,NaN,1,NaN,NaN,trial_right,redBox.png,yellowBox.png,redBox.png,al1_con.png,23,12,NaN,NaN,0.85,0.85,1,1,1,0,Volatile,Stable,2.361,0.992,0.5,1.975,expert
61,1671202504976,16/12/2022 14:55:04,1671202504908,0,16/12/2022 14:55:04,109680,37,task-xjip,repeat-7g8d#1->-repeat-38fk#1,25992695,BLIND,7678063,NaN,complete,NaN,NaN,computer,Desktop or Laptop,Mac OS 10.15.7,Safari 14.1.2,1920x1080,1920x1000,End of Day 1,SLS,90,A,Pass,End of Day 1,Pass,NaN,NaN,NaN,Pass,NaN,Pass,NaN,schedule_A,schedule_A,13,7,3,offer,Zone3,response_button_image,833,NaN,NaN,redBox.png,1,1,0,0,NaN,NaN,NaN,NaN,NaN,trial_right,redBox.png,yellowBox.png,redBox.png,al1_con.png,23,12,NaN,NaN,0.85,0.85,1,1,1,0,Volatile,Stable,2.361,0.992,0.5,1.975,expert
62,1671202506964,16/12/2022 14:55:06,1671202506895,0,16/12/2022 14:55:06,109680,37,task-xjip,repeat-7g8d#1->-repeat-38fk#1,25992695,BLIND,7678063,NaN,complete,NaN,NaN,computer,Desktop or Laptop,Mac OS 10.15.7,Safari 14.1.2,1920x1080,1920x1000,End of Day 1,SLS,90,A,Pass,End of Day 1,Pass,NaN,NaN,NaN,Pass,NaN,Pass,NaN,schedule_A,schedule_A,13,7,5,feedback_r,Zone7,timelimit_screen,1999,NaN,NaN,,NaN,0,1,0,NaN,NaN,1,NaN,NaN,trial_right,redBox.png,yellowBox.png,redBox.png,al1_con.png,23,12,NaN,NaN,0.85,0.85,1,1,1,0,Volatile,Stable,2.361,0.992,0.5,1.975,expert
63,1671202507107,16/12/2022 14:55:07,1671202507045,0,16/12/2022 14:55:07,109680,37,task-xjip,repeat-7g8d#1->-repeat-38fk#1,25992695,BLIND,7678063,NaN,complete,NaN,NaN,computer,Desktop or Laptop,Mac OS 10.15.7,Safari 14.1.2,1920x1080,1920x1000,End of Day 1,SLS,90,A,Pass,End of Day 1,Pass,NaN,NaN,NaN,Pass,NaN,Pass,NaN,schedule_A,schedule_A,13,7,6,end,Zone1,timelimit_screen,150,NaN,NaN,,NaN,0,1,0,NaN,NaN,1,NaN,NaN,trial_right,redBox.png,yellowBox.png,redBox.png,al1_con.png,23,12,NaN,NaN,0.85,0.85,1,1,1,0,Volatile,Stable,2.361,0.992,0.5,1.975,expert
64,1671202508577,16/12/2022 14:55:08,1671202508509,0,16/12/2022 14:55:08,109680,37,task-xjip,repeat-7g8d#1->-repeat-38fk#1,25992695,BLIND,7678063,NaN,complete,NaN,NaN,computer,Desktop or Laptop,Mac OS 10.15.7,Safari 14.1.2,1920x1080,1920x1000,End of Day 1,SLS,90,A,Pass,End of Day 1,Pass,NaN,NaN,NaN,Pass,NaN,Pass,NaN,schedule_A,schedule_A,14,8,1,Screen 1,Zone1,continue_button,1445.00000000001,NaN,NaN,,NaN,0,1,0,NaN,NaN,NaN,NaN,NaN,trial_right,redBox.png,redBox.png,yellowBox.png,al1_con.png,24,13,NaN,NaN,0.85,0.85,1,0,0,1,Volatile,Stable,1.05,1.95,1.319,1.487,expert
65,1671202509569,16/12/2022 14:55:09,1671202509499,0,16/12/2022 14:55:09,109680,37,task-xjip,repeat-7g8d#1->-repeat-38fk#1,25992695,BLIND,7678063,NaN,complete,NaN,NaN,computer,Desktop or Laptop,Mac OS 10.15.7,Safari 14.1.2,1920x1080,1920x1000,End of Day 1,SLS,90,A,Pass,End of Day 1,Pass,NaN,NaN,NaN,Pass,NaN,Pass,NaN,schedule_A,schedule_A,14,8,2,individual,Zone4,timelimit_screen,999,NaN,NaN,,NaN,0,1,0,NaN,NaN,1,NaN,NaN,trial_right,redBox.png,redBox.png,yellowBox.png,al1_con.png,24,13,NaN,NaN,0.85,0.85,1,0,0,1,Volatile,Stable,1.05,1.95,1.319,1.487,expert
66,1671202510737,16/12/2022 14:55:10,1671202510671,0,16/12/2022 14:55:10,109680,37,task-xjip,repeat-7g8d#1->-repeat-38fk#1,25992695,BLIND,7678063,NaN,complete,NaN,NaN,computer,Desktop or Laptop,Mac OS 10.15.7,Safari 14.1.2,1920x1080,1920x1000,End of Day 1,SLS,90,A,Pass,End of Day 1,Pass,NaN,NaN,NaN,Pass,NaN,Pass,NaN,schedule_A,schedule_A,14,8,3,offer,Zone3,response_button_image,1156.99999999999,NaN,NaN,yellowBox.png,1,0,1,0,NaN,NaN,NaN,NaN,NaN,trial_right,redBox.png,redBox.png,yellowBox.png,al1_con.png,24,13,NaN,NaN,0.85,0.85,1,0,0,1,Volatile,Stable,1.05,1.95,1.319,1.487,expert
67,1671202512725,16/12/2022 14:55:12,1671202512666,0,16/12/2022 14:55:12,109680,37,task-xjip,repeat-7g8d#1->-repeat-38fk#1,25992695,BLIND,7678063,NaN,complete,NaN,NaN,computer,Desktop or Laptop,Mac OS 10.15.7,Safari 14.1.2,1920x1080,1920x1000,End of Day 1,SLS,90,A,Pass,End of Day 1,Pass,NaN,NaN,NaN,Pass,NaN,Pass,NaN,schedule_A,schedule_A,14,8,5,feedback_r,Zone7,timelimit_screen,1999,NaN,NaN,,NaN,0,1,0,NaN,NaN,1,NaN,NaN,trial_right,redBox.png,redBox.png,yellowBox.png,al1_con.png,24,13,NaN,NaN,0.85,0.85,1,0,0,1,Volatile,Stable,1.05,1.95,1.319,1.487,expert
68,1671202512875,16/12/2022 14:55:12,1671202512816,0,16/12/2022 14:55:12,109680,37,task-xjip,repeat-7g8d#1->-repeat-38fk#1,25992695,BLIND,7678063,NaN,complete,NaN,NaN,computer,Desktop or Laptop,Mac OS 10.15.7,Safari 14.1.2,1920x1080,1920x1000,End of Day 1,SLS,90,A,Pass,End of Day 1,Pass,NaN,NaN,NaN,Pass,NaN,Pass,NaN,schedule_A,schedule_A,14,8,6,end,Zone1,timelimit_screen,150,NaN,NaN,,NaN,0,1,0,NaN,NaN,1,NaN,NaN,trial_right,redBox.png,redBox.png,yellowBox.png,al1_con.png,24,13,NaN,NaN,0.85,0.85,1,0,0,1,Volatile,Stable,1.05,1.95,1.319,1.487,expert
69,1671202513618,16/12/2022 14:55:13,1671202513555,0,16/12/2022 14:55:13,109680,37,task-xjip,repeat-7g8d#1->-repeat-38fk#1,25992695,BLIND,7678063,NaN,complete,NaN,NaN,computer,Desktop or Laptop,Mac OS 10.15.7,Safari 14.1.2,1920x1080,1920x1000,End of Day 1,SLS,90,A,Pass,End of Day 1,Pass,NaN,NaN,NaN,Pass,NaN,Pass,NaN,schedule_A,schedule_A,15,9,1,Screen 1,Zone1,continue_button,722,NaN,NaN,,NaN,0,1,0,NaN,NaN,NaN,NaN,NaN,trial_right,redBox.png,yellowBox.png,redBox.png,al1_con.png,25,14,NaN,NaN,0.85,0.85,1,1,1,0,Volatile,Stable,3.395,0.84,0.803,1.252,expert
70,1671202514627,16/12/2022 14:55:14,1671202514552,0,16/12/2022 14:55:14,109680,37,task-xjip,repeat-7g8d#1->-repeat-38fk#1,25992695,BLIND,7678063,NaN,complete,NaN,NaN,computer,Desktop or Laptop,Mac OS 10.15.7,Safari 14.1.2,1920x1080,1920x1000,End of Day 1,SLS,90,A,Pass,End of Day 1,Pass,NaN,NaN,NaN,Pass,NaN,Pass,NaN,schedule_A,schedule_A,15,9,2,individual,Zone4,timelimit_screen,1000,NaN,NaN,,NaN,0,1,0,NaN,NaN,1,NaN,NaN,trial_right,redBox.png,yellowBox.png,redBox.png,al1_con.png,25,14,NaN,NaN,0.85,0.85,1,1,1,0,Volatile,Stable,3.395,0.84,0.803,1.252,expert
71,1671202515929,16/12/2022 14:55:15,1671202515872,0,16/12/2022 14:55:15,109680,37,task-xjip,repeat-7g8d#1->-repeat-38fk#1,25992695,BLIND,7678063,NaN,complete,NaN,NaN,computer,Desktop or Laptop,Mac OS 10.15.7,Safari 14.1.2,1920x1080,1920x1000,End of Day 1,SLS,90,A,Pass,End of Day 1,Pass,NaN,NaN,NaN,Pass,NaN,Pass,NaN,schedule_A,schedule_A,15,9,3,offer,Zone3,response_button_image,1310,NaN,NaN,redBox.png,1,1,0,0,NaN,NaN,NaN,NaN,NaN,trial_right,redBox.png,yellowBox.png,redBox.png,al1_con.png,25,14,NaN,NaN,0.85,0.85,1,1,1,0,Volatile,Stable,3.395,0.84,0.803,1.252,expert
72,1671202517927,16/12/2022 14:55:17,1671202517870,0,16/12/2022 14:55:17,109680,37,task-xjip,repeat-7g8d#1->-repeat-38fk#1,25992695,BLIND,7678063,NaN,complete,NaN,NaN,computer,Desktop or Laptop,Mac OS 10.15.7,Safari 14.1.2,1920x1080,1920x1000,End of Day 1,SLS,90,A,Pass,End of Day 1,Pass,NaN,NaN,NaN,Pass,NaN,Pass,NaN,schedule_A,schedule_A,15,9,5,feedback_r,Zone7,timelimit_screen,1999,NaN,NaN,,NaN,0,1,0,NaN,NaN,1,NaN,NaN,trial_right,redBox.png,yellowBox.png,redBox.png,al1_con.png,25,14,NaN,NaN,0.85,0.85,1,1,1,0,Volatile,Stable,3.395,0.84,0.803,1.252,expert
73,1671202518073,16/12/2022 14:55:18,1671202518020,0,16/12/2022 14:55:18,109680,37,task-xjip,repeat-7g8d#1->-repeat-38fk#1,25992695,BLIND,7678063,NaN,complete,NaN,NaN,computer,Desktop or Laptop,Mac OS 10.15.7,Safari 14.1.2,1920x1080,1920x1000,End of Day 1,SLS,90,A,Pass,End of Day 1,Pass,NaN,NaN,NaN,Pass,NaN,Pass,NaN,schedule_A,schedule_A,15,9,6,end,Zone1,timelimit_screen,150,NaN,NaN,,NaN,0,1,0,NaN,NaN,1,NaN,NaN,trial_right,redBox.png,yellowBox.png,redBox.png,al1_con.png,25,14,NaN,NaN,0.85,0.85,1,1,1,0,Volatile,Stable,3.395,0.84,0.803,1.252,expert
74,1671202518983,16/12/2022 14:55:18,1671202518923,0,16/12/2022 14:55:18,109680,37,task-xjip,repeat-7g8d#1->-repeat-38fk#1,25992695,BLIND,7678063,NaN,complete,NaN,NaN,computer,Desktop or Laptop,Mac OS 10.15.7,Safari 14.1.2,1920x1080,1920x1000,End of Day 1,SLS,90,A,Pass,End of Day 1,Pass,NaN,NaN,NaN,Pass,NaN,Pass,NaN,schedule_A,schedule_A,16,10,1,Screen 1,Zone1,continue_button,884,NaN,NaN,,NaN,0,1,0,NaN,NaN,NaN,NaN,NaN,trial_right,yellowBox.png,redBox.png,yellowBox.png,al1_con.png,26,15,NaN,NaN,0.85,0.85,0,1,0,1,Volatile,Stable,2.689,1.067,1.697,2.731,expert
75,1671202519978,16/12/2022 14:55:19,1671202519923,0,16/12/2022 14:55:19,109680,37,task-xjip,repeat-7g8d#1->-repeat-38fk#1,25992695,BLIND,7678063,NaN,complete,NaN,NaN,computer,Desktop or Laptop,Mac OS 10.15.7,Safari 14.1.2,1920x1080,1920x1000,End of Day 1,SLS,90,A,Pass,End of Day 1,Pass,NaN,NaN,NaN,Pass,NaN,Pass,NaN,schedule_A,schedule_A,16,10,2,individual,Zone4,timelimit_screen,1002,NaN,NaN,,NaN,0,1,0,NaN,NaN,1,NaN,NaN,trial_right,yellowBox.png,redBox.png,yellowBox.png,al1_con.png,26,15,NaN,NaN,0.85,0.85,0,1,0,1,Volatile,Stable,2.689,1.067,1.697,2.731,expert
76,1671202521250,16/12/2022 14:55:21,1671202521196,0,16/12/2022 14:55:21,109680,37,task-xjip,repeat-7g8d#1->-repeat-38fk#1,25992695,BLIND,7678063,NaN,complete,NaN,NaN,computer,Desktop or Laptop,Mac OS 10.15.7,Safari 14.1.2,1920x1080,1920x1000,End of Day 1,SLS,90,A,Pass,End of Day 1,Pass,NaN,NaN,NaN,Pass,NaN,Pass,NaN,schedule_A,schedule_A,16,10,3,offer,Zone2,response_button_image,1262,NaN,NaN,redBox.png,1,0,1,0,NaN,NaN,NaN,NaN,NaN,trial_right,yellowBox.png,redBox.png,yellowBox.png,al1_con.png,26,15,NaN,NaN,0.85,0.85,0,1,0,1,Volatile,Stable,2.689,1.067,1.697,2.731,expert
77,1671202523249,16/12/2022 14:55:23,1671202523188,0,16/12/2022 14:55:23,109680,37,task-xjip,repeat-7g8d#1->-repeat-38fk#1,25992695,BLIND,7678063,NaN,complete,NaN,NaN,computer,Desktop or Laptop,Mac OS 10.15.7,Safari 14.1.2,1920x1080,1920x1000,End of Day 1,SLS,90,A,Pass,End of Day 1,Pass,NaN,NaN,NaN,Pass,NaN,Pass,NaN,schedule_A,schedule_A,16,10,4,feedback_l,Zone7,timelimit_screen,2000,NaN,NaN,,NaN,0,1,0,NaN,NaN,1,NaN,NaN,trial_right,yellowBox.png,redBox.png,yellowBox.png,al1_con.png,26,15,NaN,NaN,0.85,0.85,0,1,0,1,Volatile,Stable,2.689,1.067,1.697,2.731,expert
78,1671202523391,16/12/2022 14:55:23,1671202523340,0,16/12/2022 14:55:23,109680,37,task-xjip,repeat-7g8d#1->-repeat-38fk#1,25992695,BLIND,7678063,NaN,complete,NaN,NaN,computer,Desktop or Laptop,Mac OS 10.15.7,Safari 14.1.2,1920x1080,1920x1000,End of Day 1,SLS,90,A,Pass,End of Day 1,Pass,NaN,NaN,NaN,Pass,NaN,Pass,NaN,schedule_A,schedule_A,16,10,6,end,Zone1,timelimit_screen,151,NaN,NaN,,NaN,0,1,0,NaN,NaN,1,NaN,NaN,trial_right,yellowBox.png,redBox.png,yellowBox.png,al1_con.png,26,15,NaN,NaN,0.85,0.85,0,1,0,1,Volatile,Stable,2.689,1.067,1.697,2.731,expert
79,1671202524388,16/12/2022 14:55:24,1671202524324,0,16/12/2022 14:55:24,109680,37,task-xjip,repeat-7g8d#1->-repeat-38fk#1,25992695,BLIND,7678063,NaN,complete,NaN,NaN,computer,Desktop or Laptop,Mac OS 10.15.7,Safari 14.1.2,1920x1080,1920x1000,End of Day 1,SLS,90,A,Pass,End of Day 1,Pass,NaN,NaN,NaN,Pass,NaN,Pass,NaN,schedule_A,schedule_A,17,6,1,Screen 1,Zone1,continue_button,967,NaN,NaN,,NaN,0,1,0,NaN,NaN,NaN,NaN,NaN,trial_left,yellowBox.png,yellowBox.png,redBox.png,al1_con.png,27,16,NaN,NaN,0.15,0.85,0,1,0,0,Volatile,Stable,1.378,0.689,0.878,2.076,expert
80,1671202525382,16/12/2022 14:55:25,1671202525324,0,16/12/2022 14:55:25,109680,37,task-xjip,repeat-7g8d#1->-repeat-38fk#1,25992695,BLIND,7678063,NaN,complete,NaN,NaN,computer,Desktop or Laptop,Mac OS 10.15.7,Safari 14.1.2,1920x1080,1920x1000,End of Day 1,SLS,90,A,Pass,End of Day 1,Pass,NaN,NaN,NaN,Pass,NaN,Pass,NaN,schedule_A,schedule_A,17,6,2,individual,Zone4,timelimit_screen,1002,NaN,NaN,,NaN,0,1,0,NaN,NaN,1,NaN,NaN,trial_left,yellowBox.png,yellowBox.png,redBox.png,al1_con.png,27,16,NaN,NaN,0.15,0.85,0,1,0,0,Volatile,Stable,1.378,0.689,0.878,2.076,expert
81,1671202526544,16/12/2022 14:55:26,1671202526474,0,16/12/2022 14:55:26,109680,37,task-xjip,repeat-7g8d#1->-repeat-38fk#1,25992695,BLIND,7678063,NaN,complete,NaN,NaN,computer,Desktop or Laptop,Mac OS 10.15.7,Safari 14.1.2,1920x1080,1920x1000,End of Day 1,SLS,90,A,Pass,End of Day 1,Pass,NaN,NaN,NaN,Pass,NaN,Pass,NaN,schedule_A,schedule_A,17,6,3,offer,Zone2,response_button_image,1140,NaN,NaN,yellowBox.png,1,1,0,0,NaN,NaN,NaN,NaN,NaN,trial_left,yellowBox.png,yellowBox.png,redBox.png,al1_con.png,27,16,NaN,NaN,0.15,0.85,0,1,0,0,Volatile,Stable,1.378,0.689,0.878,2.076,expert
82,1671202528514,16/12/2022 14:55:28,1671202528457,0,16/12/2022 14:55:28,109680,37,task-xjip,repeat-7g8d#1->-repeat-38fk#1,25992695,BLIND,7678063,NaN,complete,NaN,NaN,computer,Desktop or Laptop,Mac OS 10.15.7,Safari 14.1.2,1920x1080,1920x1000,End of Day 1,SLS,90,A,Pass,End of Day 1,Pass,NaN,NaN,NaN,Pass,NaN,Pass,NaN,schedule_A,schedule_A,17,6,4,feedback_l,Zone7,timelimit_screen,2000,NaN,NaN,,NaN,0,1,0,NaN,NaN,1,NaN,NaN,trial_left,yellowBox.png,yellowBox.png,redBox.png,al1_con.png,27,16,NaN,NaN,0.15,0.85,0,1,0,0,Volatile,Stable,1.378,0.689,0.878,2.076,expert
83,1671202528660,16/12/2022 14:55:28,1671202528608,0,16/12/2022 14:55:28,109680,37,task-xjip,repeat-7g8d#1->-repeat-38fk#1,25992695,BLIND,7678063,NaN,complete,NaN,NaN,computer,Desktop or Laptop,Mac OS 10.15.7,Safari 14.1.2,1920x1080,1920x1000,End of Day 1,SLS,90,A,Pass,End of Day 1,Pass,NaN,NaN,NaN,Pass,NaN,Pass,NaN,schedule_A,schedule_A,17,6,6,end,Zone1,timelimit_screen,151,NaN,NaN,,NaN,0,1,0,NaN,NaN,1,NaN,NaN,trial_left,yellowBox.png,yellowBox.png,redBox.png,al1_con.png,27,16,NaN,NaN,0.15,0.85,0,1,0,0,Volatile,Stable,1.378,0.689,0.878,2.076,expert
84,1671202529453,16/12/2022 14:55:29,1671202529400,0,16/12/2022 14:55:29,109680,37,task-xjip,repeat-7g8d#1->-repeat-38fk#1,25992695,BLIND,7678063,NaN,complete,NaN,NaN,computer,Desktop or Laptop,Mac OS 10.15.7,Safari 14.1.2,1920x1080,1920x1000,End of Day 1,SLS,90,A,Pass,End of Day 1,Pass,NaN,NaN,NaN,Pass,NaN,Pass,NaN,schedule_A,schedule_A,18,11,1,Screen 1,Zone1,continue_button,776,NaN,NaN,,NaN,0,1,0,NaN,NaN,NaN,NaN,NaN,trial_right,yellowBox.png,redBox.png,yellowBox.png,al1_con.png,28,17,NaN,NaN,0.15,0.85,0,1,0,1,Volatile,Stable,2.714,0.739,1.975,1.134,expert
85,1671202530441,16/12/2022 14:55:30,1671202530392,0,16/12/2022 14:55:30,109680,37,task-xjip,repeat-7g8d#1->-repeat-38fk#1,25992695,BLIND,7678063,NaN,complete,NaN,NaN,computer,Desktop or Laptop,Mac OS 10.15.7,Safari 14.1.2,1920x1080,1920x1000,End of Day 1,SLS,90,A,Pass,End of Day 1,Pass,NaN,NaN,NaN,Pass,NaN,Pass,NaN,schedule_A,schedule_A,18,11,2,individual,Zone4,timelimit_screen,1001,NaN,NaN,,NaN,0,1,0,NaN,NaN,1,NaN,NaN,trial_right,yellowBox.png,redBox.png,yellowBox.png,al1_con.png,28,17,NaN,NaN,0.15,0.85,0,1,0,1,Volatile,Stable,2.714,0.739,1.975,1.134,expert
86,1671202531223,16/12/2022 14:55:31,1671202531111,0,16/12/2022 14:55:31,109680,37,task-xjip,repeat-7g8d#1->-repeat-38fk#1,25992695,BLIND,7678063,NaN,complete,NaN,NaN,computer,Desktop or Laptop,Mac OS 10.15.7,Safari 14.1.2,1920x1080,1920x1000,End of Day 1,SLS,90,A,Pass,End of Day 1,Pass,NaN,NaN,NaN,Pass,NaN,Pass,NaN,schedule_A,schedule_A,18,11,3,offer,Zone3,response_button_image,708.999999999985,NaN,NaN,yellowBox.png,1,1,0,0,NaN,NaN,NaN,NaN,NaN,trial_right,yellowBox.png,redBox.png,yellowBox.png,al1_con.png,28,17,NaN,NaN,0.15,0.85,0,1,0,1,Volatile,Stable,2.714,0.739,1.975,1.134,expert
87,1671202533159,16/12/2022 14:55:33,1671202533108,0,16/12/2022 14:55:33,109680,37,task-xjip,repeat-7g8d#1->-repeat-38fk#1,25992695,BLIND,7678063,NaN,complete,NaN,NaN,computer,Desktop or Laptop,Mac OS 10.15.7,Safari 14.1.2,1920x1080,1920x1000,End of Day 1,SLS,90,A,Pass,End of Day 1,Pass,NaN,NaN,NaN,Pass,NaN,Pass,NaN,schedule_A,schedule_A,18,11,5,feedback_r,Zone7,timelimit_screen,2000,NaN,NaN,,NaN,0,1,0,NaN,NaN,1,NaN,NaN,trial_right,yellowBox.png,redBox.png,yellowBox.png,al1_con.png,28,17,NaN,NaN,0.15,0.85,0,1,0,1,Volatile,Stable,2.714,0.739,1.975,1.134,expert
88,1671202533310,16/12/2022 14:55:33,1671202533258,0,16/12/2022 14:55:33,109680,37,task-xjip,repeat-7g8d#1->-repeat-38fk#1,25992695,BLIND,7678063,NaN,complete,NaN,NaN,computer,Desktop or Laptop,Mac OS 10.15.7,Safari 14.1.2,1920x1080,1920x1000,End of Day 1,SLS,90,A,Pass,End of Day 1,Pass,NaN,NaN,NaN,Pass,NaN,Pass,NaN,schedule_A,schedule_A,18,11,6,end,Zone1,timelimit_screen,150,NaN,NaN,,NaN,0,1,0,NaN,NaN,1,NaN,NaN,trial_right,yellowBox.png,redBox.png,yellowBox.png,al1_con.png,28,17,NaN,NaN,0.15,0.85,0,1,0,1,Volatile,Stable,2.714,0.739,1.975,1.134,expert
89,1671202533922,16/12/2022 14:55:33,1671202533867,0,16/12/2022 14:55:33,109680,37,task-xjip,repeat-7g8d#1->-repeat-38fk#1,25992695,BLIND,7678063,NaN,complete,NaN,NaN,computer,Desktop or Laptop,Mac OS 10.15.7,Safari 14.1.2,1920x1080,1920x1000,End of Day 1,SLS,90,A,Pass,End of Day 1,Pass,NaN,NaN,NaN,Pass,NaN,Pass,NaN,schedule_A,schedule_A,19,7,1,Screen 1,Zone1,continue_button,591,NaN,NaN,,NaN,0,1,0,NaN,NaN,NaN,NaN,NaN,trial_left,yellowBox.png,yellowBox.png,redBox.png,al1_con.png,29,18,NaN,NaN,0.15,0.85,0,1,0,0,Volatile,Stable,3.874,0.676,1.496,1.639,expert
90,1671202534934,16/12/2022 14:55:34,1671202534860,0,16/12/2022 14:55:34,109680,37,task-xjip,repeat-7g8d#1->-repeat-38fk#1,25992695,BLIND,7678063,NaN,complete,NaN,NaN,computer,Desktop or Laptop,Mac OS 10.15.7,Safari 14.1.2,1920x1080,1920x1000,End of Day 1,SLS,90,A,Pass,End of Day 1,Pass,NaN,NaN,NaN,Pass,NaN,Pass,NaN,schedule_A,schedule_A,19,7,2,individual,Zone4,timelimit_screen,1000,NaN,NaN,,NaN,0,1,0,NaN,NaN,1,NaN,NaN,trial_left,yellowBox.png,yellowBox.png,redBox.png,al1_con.png,29,18,NaN,NaN,0.15,0.85,0,1,0,0,Volatile,Stable,3.874,0.676,1.496,1.639,expert
91,1671202535762,16/12/2022 14:55:35,1671202535703,0,16/12/2022 14:55:35,109680,37,task-xjip,repeat-7g8d#1->-repeat-38fk#1,25992695,BLIND,7678063,NaN,complete,NaN,NaN,computer,Desktop or Laptop,Mac OS 10.15.7,Safari 14.1.2,1920x1080,1920x1000,End of Day 1,SLS,90,A,Pass,End of Day 1,Pass,NaN,NaN,NaN,Pass,NaN,Pass,NaN,schedule_A,schedule_A,19,7,3,offer,Zone2,response_button_image,834,NaN,NaN,yellowBox.png,1,1,0,0,NaN,NaN,NaN,NaN,NaN,trial_left,yellowBox.png,yellowBox.png,redBox.png,al1_con.png,29,18,NaN,NaN,0.15,0.85,0,1,0,0,Volatile,Stable,3.874,0.676,1.496,1.639,expert
92,1671202537741,16/12/2022 14:55:37,1671202537693,0,16/12/2022 14:55:37,109680,37,task-xjip,repeat-7g8d#1->-repeat-38fk#1,25992695,BLIND,7678063,NaN,complete,NaN,NaN,computer,Desktop or Laptop,Mac OS 10.15.7,Safari 14.1.2,1920x1080,1920x1000,End of Day 1,SLS,90,A,Pass,End of Day 1,Pass,NaN,NaN,NaN,Pass,NaN,Pass,NaN,schedule_A,schedule_A,19,7,4,feedback_l,Zone7,timelimit_screen,2000,NaN,NaN,,NaN,0,1,0,NaN,NaN,1,NaN,NaN,trial_left,yellowBox.png,yellowBox.png,redBox.png,al1_con.png,29,18,NaN,NaN,0.15,0.85,0,1,0,0,Volatile,Stable,3.874,0.676,1.496,1.639,expert
93,1671202537890,16/12/2022 14:55:37,1671202537843,0,16/12/2022 14:55:37,109680,37,task-xjip,repeat-7g8d#1->-repeat-38fk#1,25992695,BLIND,7678063,NaN,complete,NaN,NaN,computer,Desktop or Laptop,Mac OS 10.15.7,Safari 14.1.2,1920x1080,1920x1000,End of Day 1,SLS,90,A,Pass,End of Day 1,Pass,NaN,NaN,NaN,Pass,NaN,Pass,NaN,schedule_A,schedule_A,19,7,6,end,Zone1,timelimit_screen,151,NaN,NaN,,NaN,0,1,0,NaN,NaN,1,NaN,NaN,trial_left,yellowBox.png,yellowBox.png,redBox.png,al1_con.png,29,18,NaN,NaN,0.15,0.85,0,1,0,0,Volatile,Stable,3.874,0.676,1.496,1.639,expert
94,1671202538641,16/12/2022 14:55:38,1671202538593,0,16/12/2022 14:55:38,109680,37,task-xjip,repeat-7g8d#1->-repeat-38fk#1,25992695,BLIND,7678063,NaN,complete,NaN,NaN,computer,Desktop or Laptop,Mac OS 10.15.7,Safari 14.1.2,1920x1080,1920x1000,End of Day 1,SLS,90,A,Pass,End of Day 1,Pass,NaN,NaN,NaN,Pass,NaN,Pass,NaN,schedule_A,schedule_A,20,12,1,Screen 1,Zone1,continue_button,730,NaN,NaN,,NaN,0,1,0,NaN,NaN,NaN,NaN,NaN,trial_right,yellowBox.png,yellowBox.png,redBox.png,al1_con.png,30,19,NaN,NaN,0.15,0.85,0,0,1,0,Volatile,Stable,1.252,1.193,0.853,2.681,expert
95,1671202539626,16/12/2022 14:55:39,1671202539577,0,16/12/2022 14:55:39,109680,37,task-xjip,repeat-7g8d#1->-repeat-38fk#1,25992695,BLIND,7678063,NaN,complete,NaN,NaN,computer,Desktop or Laptop,Mac OS 10.15.7,Safari 14.1.2,1920x1080,1920x1000,End of Day 1,SLS,90,A,Pass,End of Day 1,Pass,NaN,NaN,NaN,Pass,NaN,Pass,NaN,schedule_A,schedule_A,20,12,2,individual,Zone4,timelimit_screen,1001,NaN,NaN,,NaN,0,1,0,NaN,NaN,1,NaN,NaN,trial_right,yellowBox.png,yellowBox.png,redBox.png,al1_con.png,30,19,NaN,NaN,0.15,0.85,0,0,1,0,Volatile,Stable,1.252,1.193,0.853,2.681,expert
96,1671202540544,16/12/2022 14:55:40,1671202540494,0,16/12/2022 14:55:40,109680,37,task-xjip,repeat-7g8d#1->-repeat-38fk#1,25992695,BLIND,7678063,NaN,complete,NaN,NaN,computer,Desktop or Laptop,Mac OS 10.15.7,Safari 14.1.2,1920x1080,1920x1000,End of Day 1,SLS,90,A,Pass,End of Day 1,Pass,NaN,NaN,NaN,Pass,NaN,Pass,NaN,schedule_A,schedule_A,20,12,3,offer,Zone3,response_button_image,908,NaN,NaN,redBox.png,1,0,1,0,NaN,NaN,NaN,NaN,NaN,trial_right,yellowBox.png,yellowBox.png,redBox.png,al1_con.png,30,19,NaN,NaN,0.15,0.85,0,0,1,0,Volatile,Stable,1.252,1.193,0.853,2.681,expert
97,1671202542546,16/12/2022 14:55:42,1671202542493,0,16/12/2022 14:55:42,109680,37,task-xjip,repeat-7g8d#1->-repeat-38fk#1,25992695,BLIND,7678063,NaN,complete,NaN,NaN,computer,Desktop or Laptop,Mac OS 10.15.7,Safari 14.1.2,1920x1080,1920x1000,End of Day 1,SLS,90,A,Pass,End of Day 1,Pass,NaN,NaN,NaN,Pass,NaN,Pass,NaN,schedule_A,schedule_A,20,12,5,feedback_r,Zone7,timelimit_screen,2000,NaN,NaN,,NaN,0,1,0,NaN,NaN,1,NaN,NaN,trial_right,yellowBox.png,yellowBox.png,redBox.png,al1_con.png,30,19,NaN,NaN,0.15,0.85,0,0,1,0,Volatile,Stable,1.252,1.193,0.853,2.681,expert
98,1671202542695,16/12/2022 14:55:42,1671202542643,0,16/12/2022 14:55:42,109680,37,task-xjip,repeat-7g8d#1->-repeat-38fk#1,25992695,BLIND,7678063,NaN,complete,NaN,NaN,computer,Desktop or Laptop,Mac OS 10.15.7,Safari 14.1.2,1920x1080,1920x1000,End of Day 1,SLS,90,A,Pass,End of Day 1,Pass,NaN,NaN,NaN,Pass,NaN,Pass,NaN,schedule_A,schedule_A,20,12,6,end,Zone1,timelimit_screen,150,NaN,NaN,,NaN,0,1,0,NaN,NaN,1,NaN,NaN,trial_right,yellowBox.png,yellowBox.png,redBox.png,al1_con.png,30,19,NaN,NaN,0.15,0.85,0,0,1,0,Volatile,Stable,1.252,1.193,0.853,2.681,expert
99,1671202543379,16/12/2022 14:55:43,1671202543330,0,16/12/2022 14:55:43,109680,37,task-xjip,repeat-7g8d#1->-repeat-38fk#1,25992695,BLIND,7678063,NaN,complete,NaN,NaN,computer,Desktop or Laptop,Mac OS 10.15.7,Safari 14.1.2,1920x1080,1920x1000,End of Day 1,SLS,90,A,Pass,End of Day 1,Pass,NaN,NaN,NaN,Pass,NaN,Pass,NaN,schedule_A,schedule_A,21,13,1,Screen 1,Zone1,continue_button,670.999999999985,NaN,NaN,,NaN,0,1,0,NaN,NaN,NaN,NaN,NaN,trial_right,yellowBox.png,redBox.png,yellowBox.png,al1_con.png,41,20,NaN,NaN,0.15,0.85,0,1,0,1,Volatile,Stable,3.521,1.723,1.37,1.655,expert
100,1671202544381,16/12/2022 14:55:44,1671202544328,0,16/12/2022 14:55:44,109680,37,task-xjip,repeat-7g8d#1->-repeat-38fk#1,25992695,BLIND,7678063,NaN,complete,NaN,NaN,computer,Desktop or Laptop,Mac OS 10.15.7,Safari 14.1.2,1920x1080,1920x1000,End of Day 1,SLS,90,A,Pass,End of Day 1,Pass,NaN,NaN,NaN,Pass,NaN,Pass,NaN,schedule_A,schedule_A,21,13,2,individual,Zone4,timelimit_screen,1000,NaN,NaN,,NaN,0,1,0,NaN,NaN,1,NaN,NaN,trial_right,yellowBox.png,redBox.png,yellowBox.png,al1_con.png,41,20,NaN,NaN,0.15,0.85,0,1,0,1,Volatile,Stable,3.521,1.723,1.37,1.655,expert
101,1671202545180,16/12/2022 14:55:45,1671202545118,0,16/12/2022 14:55:45,109680,37,task-xjip,repeat-7g8d#1->-repeat-38fk#1,25992695,BLIND,7678063,NaN,complete,NaN,NaN,computer,Desktop or Laptop,Mac OS 10.15.7,Safari 14.1.2,1920x1080,1920x1000,End of Day 1,SLS,90,A,Pass,End of Day 1,Pass,NaN,NaN,NaN,Pass,NaN,Pass,NaN,schedule_A,schedule_A,21,13,3,offer,Zone3,response_button_image,781,NaN,NaN,yellowBox.png,1,1,0,0,NaN,NaN,NaN,NaN,NaN,trial_right,yellowBox.png,redBox.png,yellowBox.png,al1_con.png,41,20,NaN,NaN,0.15,0.85,0,1,0,1,Volatile,Stable,3.521,1.723,1.37,1.655,expert
102,1671202547167,16/12/2022 14:55:47,1671202547110,0,16/12/2022 14:55:47,109680,37,task-xjip,repeat-7g8d#1->-repeat-38fk#1,25992695,BLIND,7678063,NaN,complete,NaN,NaN,computer,Desktop or Laptop,Mac OS 10.15.7,Safari 14.1.2,1920x1080,1920x1000,End of Day 1,SLS,90,A,Pass,End of Day 1,Pass,NaN,NaN,NaN,Pass,NaN,Pass,NaN,schedule_A,schedule_A,21,13,5,feedback_r,Zone7,timelimit_screen,1999,NaN,NaN,,NaN,0,1,0,NaN,NaN,1,NaN,NaN,trial_right,yellowBox.png,redBox.png,yellowBox.png,al1_con.png,41,20,NaN,NaN,0.15,0.85,0,1,0,1,Volatile,Stable,3.521,1.723,1.37,1.655,expert
103,1671202547309,16/12/2022 14:55:47,1671202547260,0,16/12/2022 14:55:47,109680,37,task-xjip,repeat-7g8d#1->-repeat-38fk#1,25992695,BLIND,7678063,NaN,complete,NaN,NaN,computer,Desktop or Laptop,Mac OS 10.15.7,Safari 14.1.2,1920x1080,1920x1000,End of Day 1,SLS,90,A,Pass,End of Day 1,Pass,NaN,NaN,NaN,Pass,NaN,Pass,NaN,schedule_A,schedule_A,21,13,6,end,Zone1,timelimit_screen,150,NaN,NaN,,NaN,0,1,0,NaN,NaN,1,NaN,NaN,trial_right,yellowBox.png,redBox.png,yellowBox.png,al1_con.png,41,20,NaN,NaN,0.15,0.85,0,1,0,1,Volatile,Stable,3.521,1.723,1.37,1.655,expert
104,1671202549048,16/12/2022 14:55:49,1671202549000,0,16/12/2022 14:55:49,109680,37,task-xjip,repeat-7g8d#1->-repeat-38fk#1,25992695,BLIND,7678063,NaN,complete,NaN,NaN,computer,Desktop or Laptop,Mac OS 10.15.7,Safari 14.1.2,1920x1080,1920x1000,End of Day 1,SLS,90,A,Pass,End of Day 1,Pass,NaN,NaN,NaN,Pass,NaN,Pass,NaN,schedule_A,schedule_A,22,14,1,Screen 1,Zone1,continue_button,1720,NaN,NaN,,NaN,0,1,0,NaN,NaN,NaN,NaN,NaN,trial_right,redBox.png,yellowBox.png,redBox.png,al1_con.png,42,21,NaN,NaN,0.85,0.85,1,1,1,0,Stable,Stable,2.336,0.651,1.685,2.882,expert
105,1671202550047,16/12/2022 14:55:50,1671202549994,0,16/12/2022 14:55:49,109680,37,task-xjip,repeat-7g8d#1->-repeat-38fk#1,25992695,BLIND,7678063,NaN,complete,NaN,NaN,computer,Desktop or Laptop,Mac OS 10.15.7,Safari 14.1.2,1920x1080,1920x1000,End of Day 1,SLS,90,A,Pass,End of Day 1,Pass,NaN,NaN,NaN,Pass,NaN,Pass,NaN,schedule_A,schedule_A,22,14,2,individual,Zone4,timelimit_screen,999,NaN,NaN,,NaN,0,1,0,NaN,NaN,1,NaN,NaN,trial_right,redBox.png,yellowBox.png,redBox.png,al1_con.png,42,21,NaN,NaN,0.85,0.85,1,1,1,0,Stable,Stable,2.336,0.651,1.685,2.882,expert
106,1671202550623,16/12/2022 14:55:50,1671202550576,0,16/12/2022 14:55:50,109680,37,task-xjip,repeat-7g8d#1->-repeat-38fk#1,25992695,BLIND,7678063,NaN,complete,NaN,NaN,computer,Desktop or Laptop,Mac OS 10.15.7,Safari 14.1.2,1920x1080,1920x1000,End of Day 1,SLS,90,A,Pass,End of Day 1,Pass,NaN,NaN,NaN,Pass,NaN,Pass,NaN,schedule_A,schedule_A,22,14,3,offer,Zone2,response_button_image,572,NaN,NaN,yellowBox.png,1,0,1,0,NaN,NaN,NaN,NaN,NaN,trial_right,redBox.png,yellowBox.png,redBox.png,al1_con.png,42,21,NaN,NaN,0.85,0.85,1,1,1,0,Stable,Stable,2.336,0.651,1.685,2.882,expert
107,1671202552612,16/12/2022 14:55:52,1671202552561,0,16/12/2022 14:55:52,109680,37,task-xjip,repeat-7g8d#1->-repeat-38fk#1,25992695,BLIND,7678063,NaN,complete,NaN,NaN,computer,Desktop or Laptop,Mac OS 10.15.7,Safari 14.1.2,1920x1080,1920x1000,End of Day 1,SLS,90,A,Pass,End of Day 1,Pass,NaN,NaN,NaN,Pass,NaN,Pass,NaN,schedule_A,schedule_A,22,14,4,feedback_l,Zone7,timelimit_screen,2001,NaN,NaN,,NaN,0,1,0,NaN,NaN,1,NaN,NaN,trial_right,redBox.png,yellowBox.png,redBox.png,al1_con.png,42,21,NaN,NaN,0.85,0.85,1,1,1,0,Stable,Stable,2.336,0.651,1.685,2.882,expert
108,1671202552760,16/12/2022 14:55:52,1671202552712,0,16/12/2022 14:55:52,109680,37,task-xjip,repeat-7g8d#1->-repeat-38fk#1,25992695,BLIND,7678063,NaN,complete,NaN,NaN,computer,Desktop or Laptop,Mac OS 10.15.7,Safari 14.1.2,1920x1080,1920x1000,End of Day 1,SLS,90,A,Pass,End of Day 1,Pass,NaN,NaN,NaN,Pass,NaN,Pass,NaN,schedule_A,schedule_A,22,14,6,end,Zone1,timelimit_screen,149,NaN,NaN,,NaN,0,1,0,NaN,NaN,1,NaN,NaN,trial_right,redBox.png,yellowBox.png,redBox.png,al1_con.png,42,21,NaN,NaN,0.85,0.85,1,1,1,0,Stable,Stable,2.336,0.651,1.685,2.882,expert
109,1671202553607,16/12/2022 14:55:53,1671202553557,0,16/12/2022 14:55:53,109680,37,task-xjip,repeat-7g8d#1->-repeat-38fk#1,25992695,BLIND,7678063,NaN,complete,NaN,NaN,computer,Desktop or Laptop,Mac OS 10.15.7,Safari 14.1.2,1920x1080,1920x1000,End of Day 1,SLS,90,A,Pass,End of Day 1,Pass,NaN,NaN,NaN,Pass,NaN,Pass,NaN,schedule_A,schedule_A,23,15,1,Screen 1,Zone1,continue_button,826,NaN,NaN,,NaN,0,1,0,NaN,NaN,NaN,NaN,NaN,trial_right,redBox.png,yellowBox.png,redBox.png,al1_con.png,43,22,NaN,NaN,0.85,0.85,1,1,1,0,Stable,Stable,3.622,1.319,1.193,1.067,expert
110,1671202554618,16/12/2022 14:55:54,1671202554544,0,16/12/2022 14:55:54,109680,37,task-xjip,repeat-7g8d#1->-repeat-38fk#1,25992695,BLIND,7678063,NaN,complete,NaN,NaN,computer,Desktop or Laptop,Mac OS 10.15.7,Safari 14.1.2,1920x1080,1920x1000,End of Day 1,SLS,90,A,Pass,End of Day 1,Pass,NaN,NaN,NaN,Pass,NaN,Pass,NaN,schedule_A,schedule_A,23,15,2,individual,Zone4,timelimit_screen,999,NaN,NaN,,NaN,0,1,0,NaN,NaN,1,NaN,NaN,trial_right,redBox.png,yellowBox.png,redBox.png,al1_con.png,43,22,NaN,NaN,0.85,0.85,1,1,1,0,Stable,Stable,3.622,1.319,1.193,1.067,expert
111,1671202555629,16/12/2022 14:55:55,1671202555571,0,16/12/2022 14:55:55,109680,37,task-xjip,repeat-7g8d#1->-repeat-38fk#1,25992695,BLIND,7678063,NaN,complete,NaN,NaN,computer,Desktop or Laptop,Mac OS 10.15.7,Safari 14.1.2,1920x1080,1920x1000,End of Day 1,SLS,90,A,Pass,End of Day 1,Pass,NaN,NaN,NaN,Pass,NaN,Pass,NaN,schedule_A,schedule_A,23,15,3,offer,Zone3,response_button_image,1021,NaN,NaN,redBox.png,1,1,0,0,NaN,NaN,NaN,NaN,NaN,trial_right,redBox.png,yellowBox.png,redBox.png,al1_con.png,43,22,NaN,NaN,0.85,0.85,1,1,1,0,Stable,Stable,3.622,1.319,1.193,1.067,expert
112,1671202557608,16/12/2022 14:55:57,1671202557561,0,16/12/2022 14:55:57,109680,37,task-xjip,repeat-7g8d#1->-repeat-38fk#1,25992695,BLIND,7678063,NaN,complete,NaN,NaN,computer,Desktop or Laptop,Mac OS 10.15.7,Safari 14.1.2,1920x1080,1920x1000,End of Day 1,SLS,90,A,Pass,End of Day 1,Pass,NaN,NaN,NaN,Pass,NaN,Pass,NaN,schedule_A,schedule_A,23,15,5,feedback_r,Zone7,timelimit_screen,1999,NaN,NaN,,NaN,0,1,0,NaN,NaN,1,NaN,NaN,trial_right,redBox.png,yellowBox.png,redBox.png,al1_con.png,43,22,NaN,NaN,0.85,0.85,1,1,1,0,Stable,Stable,3.622,1.319,1.193,1.067,expert
113,1671202557763,16/12/2022 14:55:57,1671202557712,0,16/12/2022 14:55:57,109680,37,task-xjip,repeat-7g8d#1->-repeat-38fk#1,25992695,BLIND,7678063,NaN,complete,NaN,NaN,computer,Desktop or Laptop,Mac OS 10.15.7,Safari 14.1.2,1920x1080,1920x1000,End of Day 1,SLS,90,A,Pass,End of Day 1,Pass,NaN,NaN,NaN,Pass,NaN,Pass,NaN,schedule_A,schedule_A,23,15,6,end,Zone1,timelimit_screen,151,NaN,NaN,,NaN,0,1,0,NaN,NaN,1,NaN,NaN,trial_right,redBox.png,yellowBox.png,redBox.png,al1_con.png,43,22,NaN,NaN,0.85,0.85,1,1,1,0,Stable,Stable,3.622,1.319,1.193,1.067,expert
114,1671202559613,16/12/2022 14:55:59,1671202559554,0,16/12/2022 14:55:59,109680,37,task-xjip,repeat-7g8d#1->-repeat-38fk#1,25992695,BLIND,7678063,NaN,complete,NaN,NaN,computer,Desktop or Laptop,Mac OS 10.15.7,Safari 14.1.2,1920x1080,1920x1000,End of Day 1,SLS,90,A,Pass,End of Day 1,Pass,NaN,NaN,NaN,Pass,NaN,Pass,NaN,schedule_A,schedule_A,24,8,1,Screen 1,Zone1,continue_button,1822,NaN,NaN,,NaN,0,1,0,NaN,NaN,NaN,NaN,NaN,trial_left,redBox.png,redBox.png,yellowBox.png,al1_con.png,44,23,NaN,NaN,0.85,0.85,1,1,1,1,Stable,Stable,1.731,0.853,2,1.202,expert
115,1671202560593,16/12/2022 14:56:00,1671202560545,0,16/12/2022 14:56:00,109680,37,task-xjip,repeat-7g8d#1->-repeat-38fk#1,25992695,BLIND,7678063,NaN,complete,NaN,NaN,computer,Desktop or Laptop,Mac OS 10.15.7,Safari 14.1.2,1920x1080,1920x1000,End of Day 1,SLS,90,A,Pass,End of Day 1,Pass,NaN,NaN,NaN,Pass,NaN,Pass,NaN,schedule_A,schedule_A,24,8,2,individual,Zone4,timelimit_screen,1000,NaN,NaN,,NaN,0,1,0,NaN,NaN,1,NaN,NaN,trial_left,redBox.png,redBox.png,yellowBox.png,al1_con.png,44,23,NaN,NaN,0.85,0.85,1,1,1,1,Stable,Stable,1.731,0.853,2,1.202,expert
116,1671202561496,16/12/2022 14:56:01,1671202561445,0,16/12/2022 14:56:01,109680,37,task-xjip,repeat-7g8d#1->-repeat-38fk#1,25992695,BLIND,7678063,NaN,complete,NaN,NaN,computer,Desktop or Laptop,Mac OS 10.15.7,Safari 14.1.2,1920x1080,1920x1000,End of Day 1,SLS,90,A,Pass,End of Day 1,Pass,NaN,NaN,NaN,Pass,NaN,Pass,NaN,schedule_A,schedule_A,24,8,3,offer,Zone2,response_button_image,889,NaN,NaN,redBox.png,1,1,0,0,NaN,NaN,NaN,NaN,NaN,trial_left,redBox.png,redBox.png,yellowBox.png,al1_con.png,44,23,NaN,NaN,0.85,0.85,1,1,1,1,Stable,Stable,1.731,0.853,2,1.202,expert
117,1671202563474,16/12/2022 14:56:03,1671202563429,0,16/12/2022 14:56:03,109680,37,task-xjip,repeat-7g8d#1->-repeat-38fk#1,25992695,BLIND,7678063,NaN,complete,NaN,NaN,computer,Desktop or Laptop,Mac OS 10.15.7,Safari 14.1.2,1920x1080,1920x1000,End of Day 1,SLS,90,A,Pass,End of Day 1,Pass,NaN,NaN,NaN,Pass,NaN,Pass,NaN,schedule_A,schedule_A,24,8,4,feedback_l,Zone7,timelimit_screen,2000,NaN,NaN,,NaN,0,1,0,NaN,NaN,1,NaN,NaN,trial_left,redBox.png,redBox.png,yellowBox.png,al1_con.png,44,23,NaN,NaN,0.85,0.85,1,1,1,1,Stable,Stable,1.731,0.853,2,1.202,expert
118,1671202563624,16/12/2022 14:56:03,1671202563578,0,16/12/2022 14:56:03,109680,37,task-xjip,repeat-7g8d#1->-repeat-38fk#1,25992695,BLIND,7678063,NaN,complete,NaN,NaN,computer,Desktop or Laptop,Mac OS 10.15.7,Safari 14.1.2,1920x1080,1920x1000,End of Day 1,SLS,90,A,Pass,End of Day 1,Pass,NaN,NaN,NaN,Pass,NaN,Pass,NaN,schedule_A,schedule_A,24,8,6,end,Zone1,timelimit_screen,149,NaN,NaN,,NaN,0,1,0,NaN,NaN,1,NaN,NaN,trial_left,redBox.png,redBox.png,yellowBox.png,al1_con.png,44,23,NaN,NaN,0.85,0.85,1,1,1,1,Stable,Stable,1.731,0.853,2,1.202,expert
119,1671202564598,16/12/2022 14:56:04,1671202564549,0,16/12/2022 14:56:04,109680,37,task-xjip,repeat-7g8d#1->-repeat-38fk#1,25992695,BLIND,7678063,NaN,complete,NaN,NaN,computer,Desktop or Laptop,Mac OS 10.15.7,Safari 14.1.2,1920x1080,1920x1000,End of Day 1,SLS,90,A,Pass,End of Day 1,Pass,NaN,NaN,NaN,Pass,NaN,Pass,NaN,schedule_A,schedule_A,25,16,1,Screen 1,Zone1,continue_button,951,NaN,NaN,,NaN,0,1,0,NaN,NaN,NaN,NaN,NaN,trial_right,redBox.png,yellowBox.png,redBox.png,al1_con.png,45,24,NaN,NaN,0.85,0.85,1,1,1,0,Stable,Stable,2.109,1.798,1.508,2.782,expert
120,1671202565602,16/12/2022 14:56:05,1671202565546,0,16/12/2022 14:56:05,109680,37,task-xjip,repeat-7g8d#1->-repeat-38fk#1,25992695,BLIND,7678063,NaN,complete,NaN,NaN,computer,Desktop or Laptop,Mac OS 10.15.7,Safari 14.1.2,1920x1080,1920x1000,End of Day 1,SLS,90,A,Pass,End of Day 1,Pass,NaN,NaN,NaN,Pass,NaN,Pass,NaN,schedule_A,schedule_A,25,16,2,individual,Zone4,timelimit_screen,1000,NaN,NaN,,NaN,0,1,0,NaN,NaN,1,NaN,NaN,trial_right,redBox.png,yellowBox.png,redBox.png,al1_con.png,45,24,NaN,NaN,0.85,0.85,1,1,1,0,Stable,Stable,2.109,1.798,1.508,2.782,expert
121,1671202569735,16/12/2022 14:56:09,1671202569690,0,16/12/2022 14:56:09,109680,37,task-xjip,repeat-7g8d#1->-repeat-38fk#1,25992695,BLIND,7678063,NaN,complete,NaN,NaN,computer,Desktop or Laptop,Mac OS 10.15.7,Safari 14.1.2,1920x1080,1920x1000,End of Day 1,SLS,90,A,Pass,End of Day 1,Pass,NaN,NaN,NaN,Pass,NaN,Pass,NaN,schedule_A,schedule_A,25,16,3,offer,Zone3,response_button_image,4134,NaN,NaN,redBox.png,1,1,0,0,NaN,NaN,NaN,NaN,NaN,trial_right,redBox.png,yellowBox.png,redBox.png,al1_con.png,45,24,NaN,NaN,0.85,0.85,1,1,1,0,Stable,Stable,2.109,1.798,1.508,2.782,expert
122,1671202571745,16/12/2022 14:56:11,1671202571678,0,16/12/2022 14:56:11,109680,37,task-xjip,repeat-7g8d#1->-repeat-38fk#1,25992695,BLIND,7678063,NaN,complete,NaN,NaN,computer,Desktop or Laptop,Mac OS 10.15.7,Safari 14.1.2,1920x1080,1920x1000,End of Day 1,SLS,90,A,Pass,End of Day 1,Pass,NaN,NaN,NaN,Pass,NaN,Pass,NaN,schedule_A,schedule_A,25,16,5,feedback_r,Zone7,timelimit_screen,1999,NaN,NaN,,NaN,0,1,0,NaN,NaN,1,NaN,NaN,trial_right,redBox.png,yellowBox.png,redBox.png,al1_con.png,45,24,NaN,NaN,0.85,0.85,1,1,1,0,Stable,Stable,2.109,1.798,1.508,2.782,expert
123,1671202571887,16/12/2022 14:56:11,1671202571827,0,16/12/2022 14:56:11,109680,37,task-xjip,repeat-7g8d#1->-repeat-38fk#1,25992695,BLIND,7678063,NaN,complete,NaN,NaN,computer,Desktop or Laptop,Mac OS 10.15.7,Safari 14.1.2,1920x1080,1920x1000,End of Day 1,SLS,90,A,Pass,End of Day 1,Pass,NaN,NaN,NaN,Pass,NaN,Pass,NaN,schedule_A,schedule_A,25,16,6,end,Zone1,timelimit_screen,149,NaN,NaN,,NaN,0,1,0,NaN,NaN,1,NaN,NaN,trial_right,redBox.png,yellowBox.png,redBox.png,al1_con.png,45,24,NaN,NaN,0.85,0.85,1,1,1,0,Stable,Stable,2.109,1.798,1.508,2.782,expert
124,1671202573185,16/12/2022 14:56:13,1671202573133,0,16/12/2022 14:56:13,109680,37,task-xjip,repeat-7g8d#1->-repeat-38fk#1,25992695,BLIND,7678063,NaN,complete,NaN,NaN,computer,Desktop or Laptop,Mac OS 10.15.7,Safari 14.1.2,1920x1080,1920x1000,End of Day 1,SLS,90,A,Pass,End of Day 1,Pass,NaN,NaN,NaN,Pass,NaN,Pass,NaN,schedule_A,schedule_A,26,9,1,Screen 1,Zone1,continue_button,1288,NaN,NaN,,NaN,0,1,0,NaN,NaN,NaN,NaN,NaN,trial_left,redBox.png,redBox.png,yellowBox.png,al1_con.png,46,25,NaN,NaN,0.85,0.85,1,1,1,1,Stable,Stable,2.916,1.294,1.962,2.361,expert
125,1671202574181,16/12/2022 14:56:14,1671202574129,0,16/12/2022 14:56:14,109680,37,task-xjip,repeat-7g8d#1->-repeat-38fk#1,25992695,BLIND,7678063,NaN,complete,NaN,NaN,computer,Desktop or Laptop,Mac OS 10.15.7,Safari 14.1.2,1920x1080,1920x1000,End of Day 1,SLS,90,A,Pass,End of Day 1,Pass,NaN,NaN,NaN,Pass,NaN,Pass,NaN,schedule_A,schedule_A,26,9,2,individual,Zone4,timelimit_screen,1000,NaN,NaN,,NaN,0,1,0,NaN,NaN,1,NaN,NaN,trial_left,redBox.png,redBox.png,yellowBox.png,al1_con.png,46,25,NaN,NaN,0.85,0.85,1,1,1,1,Stable,Stable,2.916,1.294,1.962,2.361,expert
126,1671202575308,16/12/2022 14:56:15,1671202575260,0,16/12/2022 14:56:15,109680,37,task-xjip,repeat-7g8d#1->-repeat-38fk#1,25992695,BLIND,7678063,NaN,complete,NaN,NaN,computer,Desktop or Laptop,Mac OS 10.15.7,Safari 14.1.2,1920x1080,1920x1000,End of Day 1,SLS,90,A,Pass,End of Day 1,Pass,NaN,NaN,NaN,Pass,NaN,Pass,NaN,schedule_A,schedule_A,26,9,3,offer,Zone2,response_button_image,1122,NaN,NaN,redBox.png,1,1,0,0,NaN,NaN,NaN,NaN,NaN,trial_left,redBox.png,redBox.png,yellowBox.png,al1_con.png,46,25,NaN,NaN,0.85,0.85,1,1,1,1,Stable,Stable,2.916,1.294,1.962,2.361,expert
127,1671202577288,16/12/2022 14:56:17,1671202577246,0,16/12/2022 14:56:17,109680,37,task-xjip,repeat-7g8d#1->-repeat-38fk#1,25992695,BLIND,7678063,NaN,complete,NaN,NaN,computer,Desktop or Laptop,Mac OS 10.15.7,Safari 14.1.2,1920x1080,1920x1000,End of Day 1,SLS,90,A,Pass,End of Day 1,Pass,NaN,NaN,NaN,Pass,NaN,Pass,NaN,schedule_A,schedule_A,26,9,4,feedback_l,Zone7,timelimit_screen,2000,NaN,NaN,,NaN,0,1,0,NaN,NaN,1,NaN,NaN,trial_left,redBox.png,redBox.png,yellowBox.png,al1_con.png,46,25,NaN,NaN,0.85,0.85,1,1,1,1,Stable,Stable,2.916,1.294,1.962,2.361,expert
128,1671202577438,16/12/2022 14:56:17,1671202577395,0,16/12/2022 14:56:17,109680,37,task-xjip,repeat-7g8d#1->-repeat-38fk#1,25992695,BLIND,7678063,NaN,complete,NaN,NaN,computer,Desktop or Laptop,Mac OS 10.15.7,Safari 14.1.2,1920x1080,1920x1000,End of Day 1,SLS,90,A,Pass,End of Day 1,Pass,NaN,NaN,NaN,Pass,NaN,Pass,NaN,schedule_A,schedule_A,26,9,6,end,Zone1,timelimit_screen,150,NaN,NaN,,NaN,0,1,0,NaN,NaN,1,NaN,NaN,trial_left,redBox.png,redBox.png,yellowBox.png,al1_con.png,46,25,NaN,NaN,0.85,0.85,1,1,1,1,Stable,Stable,2.916,1.294,1.962,2.361,expert
129,1671202578552,16/12/2022 14:56:18,1671202578499,0,16/12/2022 14:56:18,109680,37,task-xjip,repeat-7g8d#1->-repeat-38fk#1,25992695,BLIND,7678063,NaN,complete,NaN,NaN,computer,Desktop or Laptop,Mac OS 10.15.7,Safari 14.1.2,1920x1080,1920x1000,End of Day 1,SLS,90,A,Pass,End of Day 1,Pass,NaN,NaN,NaN,Pass,NaN,Pass,NaN,schedule_A,schedule_A,27,17,1,Screen 1,Zone1,continue_button,1088.00000000003,NaN,NaN,,NaN,0,1,0,NaN,NaN,NaN,NaN,NaN,trial_right,redBox.png,yellowBox.png,redBox.png,al1_con.png,47,26,NaN,NaN,0.85,0.85,1,1,1,0,Stable,Stable,2.487,1.697,1.13,1.286,expert
130,1671202579548,16/12/2022 14:56:19,1671202579495,0,16/12/2022 14:56:19,109680,37,task-xjip,repeat-7g8d#1->-repeat-38fk#1,25992695,BLIND,7678063,NaN,complete,NaN,NaN,computer,Desktop or Laptop,Mac OS 10.15.7,Safari 14.1.2,1920x1080,1920x1000,End of Day 1,SLS,90,A,Pass,End of Day 1,Pass,NaN,NaN,NaN,Pass,NaN,Pass,NaN,schedule_A,schedule_A,27,17,2,individual,Zone4,timelimit_screen,1000,NaN,NaN,,NaN,0,1,0,NaN,NaN,1,NaN,NaN,trial_right,redBox.png,yellowBox.png,redBox.png,al1_con.png,47,26,NaN,NaN,0.85,0.85,1,1,1,0,Stable,Stable,2.487,1.697,1.13,1.286,expert
131,1671202581479,16/12/2022 14:56:21,1671202581435,0,16/12/2022 14:56:21,109680,37,task-xjip,repeat-7g8d#1->-repeat-38fk#1,25992695,BLIND,7678063,NaN,complete,NaN,NaN,computer,Desktop or Laptop,Mac OS 10.15.7,Safari 14.1.2,1920x1080,1920x1000,End of Day 1,SLS,90,A,Pass,End of Day 1,Pass,NaN,NaN,NaN,Pass,NaN,Pass,NaN,schedule_A,schedule_A,27,17,3,offer,Zone3,response_button_image,1932,NaN,NaN,redBox.png,1,1,0,0,NaN,NaN,NaN,NaN,NaN,trial_right,redBox.png,yellowBox.png,redBox.png,al1_con.png,47,26,NaN,NaN,0.85,0.85,1,1,1,0,Stable,Stable,2.487,1.697,1.13,1.286,expert
132,1671202583481,16/12/2022 14:56:23,1671202583428,0,16/12/2022 14:56:23,109680,37,task-xjip,repeat-7g8d#1->-repeat-38fk#1,25992695,BLIND,7678063,NaN,complete,NaN,NaN,computer,Desktop or Laptop,Mac OS 10.15.7,Safari 14.1.2,1920x1080,1920x1000,End of Day 1,SLS,90,A,Pass,End of Day 1,Pass,NaN,NaN,NaN,Pass,NaN,Pass,NaN,schedule_A,schedule_A,27,17,5,feedback_r,Zone7,timelimit_screen,1999,NaN,NaN,,NaN,0,1,0,NaN,NaN,1,NaN,NaN,trial_right,redBox.png,yellowBox.png,redBox.png,al1_con.png,47,26,NaN,NaN,0.85,0.85,1,1,1,0,Stable,Stable,2.487,1.697,1.13,1.286,expert
133,1671202583635,16/12/2022 14:56:23,1671202583579,0,16/12/2022 14:56:23,109680,37,task-xjip,repeat-7g8d#1->-repeat-38fk#1,25992695,BLIND,7678063,NaN,complete,NaN,NaN,computer,Desktop or Laptop,Mac OS 10.15.7,Safari 14.1.2,1920x1080,1920x1000,End of Day 1,SLS,90,A,Pass,End of Day 1,Pass,NaN,NaN,NaN,Pass,NaN,Pass,NaN,schedule_A,schedule_A,27,17,6,end,Zone1,timelimit_screen,151,NaN,NaN,,NaN,0,1,0,NaN,NaN,1,NaN,NaN,trial_right,redBox.png,yellowBox.png,redBox.png,al1_con.png,47,26,NaN,NaN,0.85,0.85,1,1,1,0,Stable,Stable,2.487,1.697,1.13,1.286,expert
134,1671202587264,16/12/2022 14:56:27,1671202587206,0,16/12/2022 14:56:27,109680,37,task-xjip,repeat-7g8d#1->-repeat-38fk#1,25992695,BLIND,7678063,NaN,complete,NaN,NaN,computer,Desktop or Laptop,Mac OS 10.15.7,Safari 14.1.2,1920x1080,1920x1000,End of Day 1,SLS,90,A,Pass,End of Day 1,Pass,NaN,NaN,NaN,Pass,NaN,Pass,NaN,schedule_A,schedule_A,28,10,1,Screen 1,Zone1,continue_button,3609,NaN,NaN,,NaN,0,1,0,NaN,NaN,NaN,NaN,NaN,trial_left,redBox.png,redBox.png,yellowBox.png,al1_con.png,48,27,NaN,NaN,0.85,0.85,1,1,1,1,Stable,Stable,3.824,1.634,0.992,2.244,expert
135,1671202588242,16/12/2022 14:56:28,1671202588196,0,16/12/2022 14:56:28,109680,37,task-xjip,repeat-7g8d#1->-repeat-38fk#1,25992695,BLIND,7678063,NaN,complete,NaN,NaN,computer,Desktop or Laptop,Mac OS 10.15.7,Safari 14.1.2,1920x1080,1920x1000,End of Day 1,SLS,90,A,Pass,End of Day 1,Pass,NaN,NaN,NaN,Pass,NaN,Pass,NaN,schedule_A,schedule_A,28,10,2,individual,Zone4,timelimit_screen,1001,NaN,NaN,,NaN,0,1,0,NaN,NaN,1,NaN,NaN,trial_left,redBox.png,redBox.png,yellowBox.png,al1_con.png,48,27,NaN,NaN,0.85,0.85,1,1,1,1,Stable,Stable,3.824,1.634,0.992,2.244,expert
136,1671202589456,16/12/2022 14:56:29,1671202589411,0,16/12/2022 14:56:29,109680,37,task-xjip,repeat-7g8d#1->-repeat-38fk#1,25992695,BLIND,7678063,NaN,complete,NaN,NaN,computer,Desktop or Laptop,Mac OS 10.15.7,Safari 14.1.2,1920x1080,1920x1000,End of Day 1,SLS,90,A,Pass,End of Day 1,Pass,NaN,NaN,NaN,Pass,NaN,Pass,NaN,schedule_A,schedule_A,28,10,3,offer,Zone2,response_button_image,1205,NaN,NaN,redBox.png,1,1,0,0,NaN,NaN,NaN,NaN,NaN,trial_left,redBox.png,redBox.png,yellowBox.png,al1_con.png,48,27,NaN,NaN,0.85,0.85,1,1,1,1,Stable,Stable,3.824,1.634,0.992,2.244,expert
137,1671202591440,16/12/2022 14:56:31,1671202591395,0,16/12/2022 14:56:31,109680,37,task-xjip,repeat-7g8d#1->-repeat-38fk#1,25992695,BLIND,7678063,NaN,complete,NaN,NaN,computer,Desktop or Laptop,Mac OS 10.15.7,Safari 14.1.2,1920x1080,1920x1000,End of Day 1,SLS,90,A,Pass,End of Day 1,Pass,NaN,NaN,NaN,Pass,NaN,Pass,NaN,schedule_A,schedule_A,28,10,4,feedback_l,Zone7,timelimit_screen,1999,NaN,NaN,,NaN,0,1,0,NaN,NaN,1,NaN,NaN,trial_left,redBox.png,redBox.png,yellowBox.png,al1_con.png,48,27,NaN,NaN,0.85,0.85,1,1,1,1,Stable,Stable,3.824,1.634,0.992,2.244,expert
138,1671202591590,16/12/2022 14:56:31,1671202591546,0,16/12/2022 14:56:31,109680,37,task-xjip,repeat-7g8d#1->-repeat-38fk#1,25992695,BLIND,7678063,NaN,complete,NaN,NaN,computer,Desktop or Laptop,Mac OS 10.15.7,Safari 14.1.2,1920x1080,1920x1000,End of Day 1,SLS,90,A,Pass,End of Day 1,Pass,NaN,NaN,NaN,Pass,NaN,Pass,NaN,schedule_A,schedule_A,28,10,6,end,Zone1,timelimit_screen,151,NaN,NaN,,NaN,0,1,0,NaN,NaN,1,NaN,NaN,trial_left,redBox.png,redBox.png,yellowBox.png,al1_con.png,48,27,NaN,NaN,0.85,0.85,1,1,1,1,Stable,Stable,3.824,1.634,0.992,2.244,expert
139,1671202592652,16/12/2022 14:56:32,1671202592596,0,16/12/2022 14:56:32,109680,37,task-xjip,repeat-7g8d#1->-repeat-38fk#1,25992695,BLIND,7678063,NaN,complete,NaN,NaN,computer,Desktop or Laptop,Mac OS 10.15.7,Safari 14.1.2,1920x1080,1920x1000,End of Day 1,SLS,90,A,Pass,End of Day 1,Pass,NaN,NaN,NaN,Pass,NaN,Pass,NaN,schedule_A,schedule_A,29,11,1,Screen 1,Zone1,continue_button,1031,NaN,NaN,,NaN,0,1,0,NaN,NaN,NaN,NaN,NaN,trial_left,redBox.png,redBox.png,yellowBox.png,al1_con.png,49,28,NaN,NaN,0.85,0.85,1,1,1,1,Stable,Stable,2.84,1.937,1.723,2.815,expert
140,1671202593642,16/12/2022 14:56:33,1671202593579,0,16/12/2022 14:56:33,109680,37,task-xjip,repeat-7g8d#1->-repeat-38fk#1,25992695,BLIND,7678063,NaN,complete,NaN,NaN,computer,Desktop or Laptop,Mac OS 10.15.7,Safari 14.1.2,1920x1080,1920x1000,End of Day 1,SLS,90,A,Pass,End of Day 1,Pass,NaN,NaN,NaN,Pass,NaN,Pass,NaN,schedule_A,schedule_A,29,11,2,individual,Zone4,timelimit_screen,999,NaN,NaN,,NaN,0,1,0,NaN,NaN,1,NaN,NaN,trial_left,redBox.png,redBox.png,yellowBox.png,al1_con.png,49,28,NaN,NaN,0.85,0.85,1,1,1,1,Stable,Stable,2.84,1.937,1.723,2.815,expert
141,1671202596035,16/12/2022 14:56:36,1671202595984,0,16/12/2022 14:56:35,109680,37,task-xjip,repeat-7g8d#1->-repeat-38fk#1,25992695,BLIND,7678063,NaN,complete,NaN,NaN,computer,Desktop or Laptop,Mac OS 10.15.7,Safari 14.1.2,1920x1080,1920x1000,End of Day 1,SLS,90,A,Pass,End of Day 1,Pass,NaN,NaN,NaN,Pass,NaN,Pass,NaN,schedule_A,schedule_A,29,11,3,offer,Zone2,response_button_image,2395,NaN,NaN,redBox.png,1,1,0,0,NaN,NaN,NaN,NaN,NaN,trial_left,redBox.png,redBox.png,yellowBox.png,al1_con.png,49,28,NaN,NaN,0.85,0.85,1,1,1,1,Stable,Stable,2.84,1.937,1.723,2.815,expert
142,1671202598036,16/12/2022 14:56:38,1671202597978,0,16/12/2022 14:56:37,109680,37,task-xjip,repeat-7g8d#1->-repeat-38fk#1,25992695,BLIND,7678063,NaN,complete,NaN,NaN,computer,Desktop or Laptop,Mac OS 10.15.7,Safari 14.1.2,1920x1080,1920x1000,End of Day 1,SLS,90,A,Pass,End of Day 1,Pass,NaN,NaN,NaN,Pass,NaN,Pass,NaN,schedule_A,schedule_A,29,11,4,feedback_l,Zone7,timelimit_screen,1999,NaN,NaN,,NaN,0,1,0,NaN,NaN,1,NaN,NaN,trial_left,redBox.png,redBox.png,yellowBox.png,al1_con.png,49,28,NaN,NaN,0.85,0.85,1,1,1,1,Stable,Stable,2.84,1.937,1.723,2.815,expert
143,1671202598187,16/12/2022 14:56:38,1671202598129,0,16/12/2022 14:56:38,109680,37,task-xjip,repeat-7g8d#1->-repeat-38fk#1,25992695,BLIND,7678063,NaN,complete,NaN,NaN,computer,Desktop or Laptop,Mac OS 10.15.7,Safari 14.1.2,1920x1080,1920x1000,End of Day 1,SLS,90,A,Pass,End of Day 1,Pass,NaN,NaN,NaN,Pass,NaN,Pass,NaN,schedule_A,schedule_A,29,11,6,end,Zone1,timelimit_screen,151,NaN,NaN,,NaN,0,1,0,NaN,NaN,1,NaN,NaN,trial_left,redBox.png,redBox.png,yellowBox.png,al1_con.png,49,28,NaN,NaN,0.85,0.85,1,1,1,1,Stable,Stable,2.84,1.937,1.723,2.815,expert
144,1671202599221,16/12/2022 14:56:39,1671202599177,0,16/12/2022 14:56:39,109680,37,task-xjip,repeat-7g8d#1->-repeat-38fk#1,25992695,BLIND,7678063,NaN,complete,NaN,NaN,computer,Desktop or Laptop,Mac OS 10.15.7,Safari 14.1.2,1920x1080,1920x1000,End of Day 1,SLS,90,A,Pass,End of Day 1,Pass,NaN,NaN,NaN,Pass,NaN,Pass,NaN,schedule_A,schedule_A,30,18,1,Screen 1,Zone1,continue_button,1031,NaN,NaN,,NaN,0,1,0,NaN,NaN,NaN,NaN,NaN,trial_right,redBox.png,yellowBox.png,redBox.png,al1_con.png,50,29,NaN,NaN,0.85,0.85,1,1,1,0,Stable,Stable,2.941,1.71,0.664,1.336,expert
145,1671202600209,16/12/2022 14:56:40,1671202600163,0,16/12/2022 14:56:40,109680,37,task-xjip,repeat-7g8d#1->-repeat-38fk#1,25992695,BLIND,7678063,NaN,complete,NaN,NaN,computer,Desktop or Laptop,Mac OS 10.15.7,Safari 14.1.2,1920x1080,1920x1000,End of Day 1,SLS,90,A,Pass,End of Day 1,Pass,NaN,NaN,NaN,Pass,NaN,Pass,NaN,schedule_A,schedule_A,30,18,2,individual,Zone4,timelimit_screen,1001,NaN,NaN,,NaN,0,1,0,NaN,NaN,1,NaN,NaN,trial_right,redBox.png,yellowBox.png,redBox.png,al1_con.png,50,29,NaN,NaN,0.85,0.85,1,1,1,0,Stable,Stable,2.941,1.71,0.664,1.336,expert
146,1671202600900,16/12/2022 14:56:40,1671202600842,0,16/12/2022 14:56:40,109680,37,task-xjip,repeat-7g8d#1->-repeat-38fk#1,25992695,BLIND,7678063,NaN,complete,NaN,NaN,computer,Desktop or Laptop,Mac OS 10.15.7,Safari 14.1.2,1920x1080,1920x1000,End of Day 1,SLS,90,A,Pass,End of Day 1,Pass,NaN,NaN,NaN,Pass,NaN,Pass,NaN,schedule_A,schedule_A,30,18,3,offer,Zone3,response_button_image,668,NaN,NaN,redBox.png,1,1,0,0,NaN,NaN,NaN,NaN,NaN,trial_right,redBox.png,yellowBox.png,redBox.png,al1_con.png,50,29,NaN,NaN,0.85,0.85,1,1,1,0,Stable,Stable,2.941,1.71,0.664,1.336,expert
147,1671202602888,16/12/2022 14:56:42,1671202602828,0,16/12/2022 14:56:42,109680,37,task-xjip,repeat-7g8d#1->-repeat-38fk#1,25992695,BLIND,7678063,NaN,complete,NaN,NaN,computer,Desktop or Laptop,Mac OS 10.15.7,Safari 14.1.2,1920x1080,1920x1000,End of Day 1,SLS,90,A,Pass,End of Day 1,Pass,NaN,NaN,NaN,Pass,NaN,Pass,NaN,schedule_A,schedule_A,30,18,5,feedback_r,Zone7,timelimit_screen,2001,NaN,NaN,,NaN,0,1,0,NaN,NaN,1,NaN,NaN,trial_right,redBox.png,yellowBox.png,redBox.png,al1_con.png,50,29,NaN,NaN,0.85,0.85,1,1,1,0,Stable,Stable,2.941,1.71,0.664,1.336,expert
148,1671202603022,16/12/2022 14:56:43,1671202602978,0,16/12/2022 14:56:42,109680,37,task-xjip,repeat-7g8d#1->-repeat-38fk#1,25992695,BLIND,7678063,NaN,complete,NaN,NaN,computer,Desktop or Laptop,Mac OS 10.15.7,Safari 14.1.2,1920x1080,1920x1000,End of Day 1,SLS,90,A,Pass,End of Day 1,Pass,NaN,NaN,NaN,Pass,NaN,Pass,NaN,schedule_A,schedule_A,30,18,6,end,Zone1,timelimit_screen,150,NaN,NaN,,NaN,0,1,0,NaN,NaN,1,NaN,NaN,trial_right,redBox.png,yellowBox.png,redBox.png,al1_con.png,50,29,NaN,NaN,0.85,0.85,1,1,1,0,Stable,Stable,2.941,1.71,0.664,1.336,expert
149,1671202604014,16/12/2022 14:56:44,1671202603971,0,16/12/2022 14:56:43,109680,37,task-xjip,repeat-7g8d#1->-repeat-38fk#1,25992695,BLIND,7678063,NaN,complete,NaN,NaN,computer,Desktop or Laptop,Mac OS 10.15.7,Safari 14.1.2,1920x1080,1920x1000,End of Day 1,SLS,90,A,Pass,End of Day 1,Pass,NaN,NaN,NaN,Pass,NaN,Pass,NaN,schedule_A,schedule_A,31,12,1,Screen 1,Zone1,continue_button,977,NaN,NaN,,NaN,0,1,0,NaN,NaN,NaN,NaN,NaN,trial_left,redBox.png,redBox.png,yellowBox.png,al1_con.png,61,30,NaN,NaN,0.85,0.85,1,1,1,1,Stable,Stable,2.79,1.735,0.601,2.345,expert
150,1671202605007,16/12/2022 14:56:45,1671202604963,0,16/12/2022 14:56:44,109680,37,task-xjip,repeat-7g8d#1->-repeat-38fk#1,25992695,BLIND,7678063,NaN,complete,NaN,NaN,computer,Desktop or Laptop,Mac OS 10.15.7,Safari 14.1.2,1920x1080,1920x1000,End of Day 1,SLS,90,A,Pass,End of Day 1,Pass,NaN,NaN,NaN,Pass,NaN,Pass,NaN,schedule_A,schedule_A,31,12,2,individual,Zone4,timelimit_screen,1001,NaN,NaN,,NaN,0,1,0,NaN,NaN,1,NaN,NaN,trial_left,redBox.png,redBox.png,yellowBox.png,al1_con.png,61,30,NaN,NaN,0.85,0.85,1,1,1,1,Stable,Stable,2.79,1.735,0.601,2.345,expert
151,1671202605552,16/12/2022 14:56:45,1671202605510,0,16/12/2022 14:56:45,109680,37,task-xjip,repeat-7g8d#1->-repeat-38fk#1,25992695,BLIND,7678063,NaN,complete,NaN,NaN,computer,Desktop or Laptop,Mac OS 10.15.7,Safari 14.1.2,1920x1080,1920x1000,End of Day 1,SLS,90,A,Pass,End of Day 1,Pass,NaN,NaN,NaN,Pass,NaN,Pass,NaN,schedule_A,schedule_A,31,12,3,offer,Zone2,response_button_image,537,NaN,NaN,redBox.png,1,1,0,0,NaN,NaN,NaN,NaN,NaN,trial_left,redBox.png,redBox.png,yellowBox.png,al1_con.png,61,30,NaN,NaN,0.85,0.85,1,1,1,1,Stable,Stable,2.79,1.735,0.601,2.345,expert
152,1671202607556,16/12/2022 14:56:47,1671202607497,0,16/12/2022 14:56:47,109680,37,task-xjip,repeat-7g8d#1->-repeat-38fk#1,25992695,BLIND,7678063,NaN,complete,NaN,NaN,computer,Desktop or Laptop,Mac OS 10.15.7,Safari 14.1.2,1920x1080,1920x1000,End of Day 1,SLS,90,A,Pass,End of Day 1,Pass,NaN,NaN,NaN,Pass,NaN,Pass,NaN,schedule_A,schedule_A,31,12,4,feedback_l,Zone7,timelimit_screen,2001,NaN,NaN,,NaN,0,1,0,NaN,NaN,1,NaN,NaN,trial_left,redBox.png,redBox.png,yellowBox.png,al1_con.png,61,30,NaN,NaN,0.85,0.85,1,1,1,1,Stable,Stable,2.79,1.735,0.601,2.345,expert
153,1671202607700,16/12/2022 14:56:47,1671202607646,0,16/12/2022 14:56:47,109680,37,task-xjip,repeat-7g8d#1->-repeat-38fk#1,25992695,BLIND,7678063,NaN,complete,NaN,NaN,computer,Desktop or Laptop,Mac OS 10.15.7,Safari 14.1.2,1920x1080,1920x1000,End of Day 1,SLS,90,A,Pass,End of Day 1,Pass,NaN,NaN,NaN,Pass,NaN,Pass,NaN,schedule_A,schedule_A,31,12,6,end,Zone1,timelimit_screen,150,NaN,NaN,,NaN,0,1,0,NaN,NaN,1,NaN,NaN,trial_left,redBox.png,redBox.png,yellowBox.png,al1_con.png,61,30,NaN,NaN,0.85,0.85,1,1,1,1,Stable,Stable,2.79,1.735,0.601,2.345,expert
154,1671202608414,16/12/2022 14:56:48,1671202608368,0,16/12/2022 14:56:48,109680,37,task-xjip,repeat-7g8d#1->-repeat-38fk#1,25992695,BLIND,7678063,NaN,complete,NaN,NaN,computer,Desktop or Laptop,Mac OS 10.15.7,Safari 14.1.2,1920x1080,1920x1000,End of Day 1,SLS,90,A,Pass,End of Day 1,Pass,NaN,NaN,NaN,Pass,NaN,Pass,NaN,schedule_A,schedule_A,32,19,1,Screen 1,Zone1,continue_button,703,NaN,NaN,,NaN,0,1,0,NaN,NaN,NaN,NaN,NaN,trial_right,redBox.png,redBox.png,yellowBox.png,al1_con.png,62,31,NaN,NaN,0.85,0.15,1,0,0,1,Stable,Volatile,2.538,1.672,1.143,1.555,expert
155,1671202609419,16/12/2022 14:56:49,1671202609362,0,16/12/2022 14:56:49,109680,37,task-xjip,repeat-7g8d#1->-repeat-38fk#1,25992695,BLIND,7678063,NaN,complete,NaN,NaN,computer,Desktop or Laptop,Mac OS 10.15.7,Safari 14.1.2,1920x1080,1920x1000,End of Day 1,SLS,90,A,Pass,End of Day 1,Pass,NaN,NaN,NaN,Pass,NaN,Pass,NaN,schedule_A,schedule_A,32,19,2,individual,Zone4,timelimit_screen,1000,NaN,NaN,,NaN,0,1,0,NaN,NaN,1,NaN,NaN,trial_right,redBox.png,redBox.png,yellowBox.png,al1_con.png,62,31,NaN,NaN,0.85,0.15,1,0,0,1,Stable,Volatile,2.538,1.672,1.143,1.555,expert
156,1671202610053,16/12/2022 14:56:50,1671202609999,0,16/12/2022 14:56:49,109680,37,task-xjip,repeat-7g8d#1->-repeat-38fk#1,25992695,BLIND,7678063,NaN,complete,NaN,NaN,computer,Desktop or Laptop,Mac OS 10.15.7,Safari 14.1.2,1920x1080,1920x1000,End of Day 1,SLS,90,A,Pass,End of Day 1,Pass,NaN,NaN,NaN,Pass,NaN,Pass,NaN,schedule_A,schedule_A,32,19,3,offer,Zone3,response_button_image,627,NaN,NaN,yellowBox.png,1,0,1,0,NaN,NaN,NaN,NaN,NaN,trial_right,redBox.png,redBox.png,yellowBox.png,al1_con.png,62,31,NaN,NaN,0.85,0.15,1,0,0,1,Stable,Volatile,2.538,1.672,1.143,1.555,expert
157,1671202612044,16/12/2022 14:56:52,1671202611996,0,16/12/2022 14:56:51,109680,37,task-xjip,repeat-7g8d#1->-repeat-38fk#1,25992695,BLIND,7678063,NaN,complete,NaN,NaN,computer,Desktop or Laptop,Mac OS 10.15.7,Safari 14.1.2,1920x1080,1920x1000,End of Day 1,SLS,90,A,Pass,End of Day 1,Pass,NaN,NaN,NaN,Pass,NaN,Pass,NaN,schedule_A,schedule_A,32,19,5,feedback_r,Zone7,timelimit_screen,2001,NaN,NaN,,NaN,0,1,0,NaN,NaN,1,NaN,NaN,trial_right,redBox.png,redBox.png,yellowBox.png,al1_con.png,62,31,NaN,NaN,0.85,0.15,1,0,0,1,Stable,Volatile,2.538,1.672,1.143,1.555,expert
158,1671202612191,16/12/2022 14:56:52,1671202612146,0,16/12/2022 14:56:52,109680,37,task-xjip,repeat-7g8d#1->-repeat-38fk#1,25992695,BLIND,7678063,NaN,complete,NaN,NaN,computer,Desktop or Laptop,Mac OS 10.15.7,Safari 14.1.2,1920x1080,1920x1000,End of Day 1,SLS,90,A,Pass,End of Day 1,Pass,NaN,NaN,NaN,Pass,NaN,Pass,NaN,schedule_A,schedule_A,32,19,6,end,Zone1,timelimit_screen,150,NaN,NaN,,NaN,0,1,0,NaN,NaN,1,NaN,NaN,trial_right,redBox.png,redBox.png,yellowBox.png,al1_con.png,62,31,NaN,NaN,0.85,0.15,1,0,0,1,Stable,Volatile,2.538,1.672,1.143,1.555,expert
159,1671202612742,16/12/2022 14:56:52,1671202612688,0,16/12/2022 14:56:52,109680,37,task-xjip,repeat-7g8d#1->-repeat-38fk#1,25992695,BLIND,7678063,NaN,complete,NaN,NaN,computer,Desktop or Laptop,Mac OS 10.15.7,Safari 14.1.2,1920x1080,1920x1000,End of Day 1,SLS,90,A,Pass,End of Day 1,Pass,NaN,NaN,NaN,Pass,NaN,Pass,NaN,schedule_A,schedule_A,33,13,1,Screen 1,Zone1,continue_button,524,NaN,NaN,,NaN,0,1,0,NaN,NaN,NaN,NaN,NaN,trial_left,redBox.png,yellowBox.png,redBox.png,al1_con.png,63,32,NaN,NaN,0.85,0.15,1,0,0,0,Stable,Volatile,2.739,1.13,0.815,1.387,expert
160,1671202613741,16/12/2022 14:56:53,1671202613679,0,16/12/2022 14:56:53,109680,37,task-xjip,repeat-7g8d#1->-repeat-38fk#1,25992695,BLIND,7678063,NaN,complete,NaN,NaN,computer,Desktop or Laptop,Mac OS 10.15.7,Safari 14.1.2,1920x1080,1920x1000,End of Day 1,SLS,90,A,Pass,End of Day 1,Pass,NaN,NaN,NaN,Pass,NaN,Pass,NaN,schedule_A,schedule_A,33,13,2,individual,Zone4,timelimit_screen,999,NaN,NaN,,NaN,0,1,0,NaN,NaN,1,NaN,NaN,trial_left,redBox.png,yellowBox.png,redBox.png,al1_con.png,63,32,NaN,NaN,0.85,0.15,1,0,0,0,Stable,Volatile,2.739,1.13,0.815,1.387,expert
161,1671202614206,16/12/2022 14:56:54,1671202614162,0,16/12/2022 14:56:54,109680,37,task-xjip,repeat-7g8d#1->-repeat-38fk#1,25992695,BLIND,7678063,NaN,complete,NaN,NaN,computer,Desktop or Laptop,Mac OS 10.15.7,Safari 14.1.2,1920x1080,1920x1000,End of Day 1,SLS,90,A,Pass,End of Day 1,Pass,NaN,NaN,NaN,Pass,NaN,Pass,NaN,schedule_A,schedule_A,33,13,3,offer,bluebox,response_button_image,473,NaN,NaN,redBox.png,1,1,0,0,NaN,NaN,NaN,NaN,NaN,trial_left,redBox.png,yellowBox.png,redBox.png,al1_con.png,63,32,NaN,NaN,0.85,0.15,1,0,0,0,Stable,Volatile,2.739,1.13,0.815,1.387,expert
162,1671202616203,16/12/2022 14:56:56,1671202616146,0,16/12/2022 14:56:56,109680,37,task-xjip,repeat-7g8d#1->-repeat-38fk#1,25992695,BLIND,7678063,NaN,complete,NaN,NaN,computer,Desktop or Laptop,Mac OS 10.15.7,Safari 14.1.2,1920x1080,1920x1000,End of Day 1,SLS,90,A,Pass,End of Day 1,Pass,NaN,NaN,NaN,Pass,NaN,Pass,NaN,schedule_A,schedule_A,33,13,5,feedback_r,Zone7,timelimit_screen,2000,NaN,NaN,,NaN,0,1,0,NaN,NaN,1,NaN,NaN,trial_left,redBox.png,yellowBox.png,redBox.png,al1_con.png,63,32,NaN,NaN,0.85,0.15,1,0,0,0,Stable,Volatile,2.739,1.13,0.815,1.387,expert
163,1671202616339,16/12/2022 14:56:56,1671202616295,0,16/12/2022 14:56:56,109680,37,task-xjip,repeat-7g8d#1->-repeat-38fk#1,25992695,BLIND,7678063,NaN,complete,NaN,NaN,computer,Desktop or Laptop,Mac OS 10.15.7,Safari 14.1.2,1920x1080,1920x1000,End of Day 1,SLS,90,A,Pass,End of Day 1,Pass,NaN,NaN,NaN,Pass,NaN,Pass,NaN,schedule_A,schedule_A,33,13,6,end,Zone1,timelimit_screen,149,NaN,NaN,,NaN,0,1,0,NaN,NaN,1,NaN,NaN,trial_left,redBox.png,yellowBox.png,redBox.png,al1_con.png,63,32,NaN,NaN,0.85,0.15,1,0,0,0,Stable,Volatile,2.739,1.13,0.815,1.387,expert
164,1671202617131,16/12/2022 14:56:57,1671202617076,0,16/12/2022 14:56:57,109680,37,task-xjip,repeat-7g8d#1->-repeat-38fk#1,25992695,BLIND,7678063,NaN,complete,NaN,NaN,computer,Desktop or Laptop,Mac OS 10.15.7,Safari 14.1.2,1920x1080,1920x1000,End of Day 1,SLS,90,A,Pass,End of Day 1,Pass,NaN,NaN,NaN,Pass,NaN,Pass,NaN,schedule_A,schedule_A,34,20,1,Screen 1,Zone1,continue_button,764,NaN,NaN,,NaN,0,1,0,NaN,NaN,NaN,NaN,NaN,trial_right,redBox.png,redBox.png,yellowBox.png,al1_con.png,64,33,NaN,NaN,0.85,0.15,1,0,0,1,Stable,Volatile,3.672,0.828,0.513,2.059,expert
165,1671202618110,16/12/2022 14:56:58,1671202618062,0,16/12/2022 14:56:58,109680,37,task-xjip,repeat-7g8d#1->-repeat-38fk#1,25992695,BLIND,7678063,NaN,complete,NaN,NaN,computer,Desktop or Laptop,Mac OS 10.15.7,Safari 14.1.2,1920x1080,1920x1000,End of Day 1,SLS,90,A,Pass,End of Day 1,Pass,NaN,NaN,NaN,Pass,NaN,Pass,NaN,schedule_A,schedule_A,34,20,2,individual,Zone4,timelimit_screen,1000,NaN,NaN,,NaN,0,1,0,NaN,NaN,1,NaN,NaN,trial_right,redBox.png,redBox.png,yellowBox.png,al1_con.png,64,33,NaN,NaN,0.85,0.15,1,0,0,1,Stable,Volatile,3.672,0.828,0.513,2.059,expert
166,1671202618577,16/12/2022 14:56:58,1671202618529,0,16/12/2022 14:56:58,109680,37,task-xjip,repeat-7g8d#1->-repeat-38fk#1,25992695,BLIND,7678063,NaN,complete,NaN,NaN,computer,Desktop or Laptop,Mac OS 10.15.7,Safari 14.1.2,1920x1080,1920x1000,End of Day 1,SLS,90,A,Pass,End of Day 1,Pass,NaN,NaN,NaN,Pass,NaN,Pass,NaN,schedule_A,schedule_A,34,20,3,offer,Zone2,response_button_image,457,NaN,NaN,redBox.png,1,1,0,0,NaN,NaN,NaN,NaN,NaN,trial_right,redBox.png,redBox.png,yellowBox.png,al1_con.png,64,33,NaN,NaN,0.85,0.15,1,0,0,1,Stable,Volatile,3.672,0.828,0.513,2.059,expert
167,1671202620570,16/12/2022 14:57:00,1671202620512,0,16/12/2022 14:57:00,109680,37,task-xjip,repeat-7g8d#1->-repeat-38fk#1,25992695,BLIND,7678063,NaN,complete,NaN,NaN,computer,Desktop or Laptop,Mac OS 10.15.7,Safari 14.1.2,1920x1080,1920x1000,End of Day 1,SLS,90,A,Pass,End of Day 1,Pass,NaN,NaN,NaN,Pass,NaN,Pass,NaN,schedule_A,schedule_A,34,20,4,feedback_l,Zone7,timelimit_screen,1998,NaN,NaN,,NaN,0,1,0,NaN,NaN,1,NaN,NaN,trial_right,redBox.png,redBox.png,yellowBox.png,al1_con.png,64,33,NaN,NaN,0.85,0.15,1,0,0,1,Stable,Volatile,3.672,0.828,0.513,2.059,expert
168,1671202620708,16/12/2022 14:57:00,1671202620663,0,16/12/2022 14:57:00,109680,37,task-xjip,repeat-7g8d#1->-repeat-38fk#1,25992695,BLIND,7678063,NaN,complete,NaN,NaN,computer,Desktop or Laptop,Mac OS 10.15.7,Safari 14.1.2,1920x1080,1920x1000,End of Day 1,SLS,90,A,Pass,End of Day 1,Pass,NaN,NaN,NaN,Pass,NaN,Pass,NaN,schedule_A,schedule_A,34,20,6,end,Zone1,timelimit_screen,150,NaN,NaN,,NaN,0,1,0,NaN,NaN,1,NaN,NaN,trial_right,redBox.png,redBox.png,yellowBox.png,al1_con.png,64,33,NaN,NaN,0.85,0.15,1,0,0,1,Stable,Volatile,3.672,0.828,0.513,2.059,expert
169,1671202621502,16/12/2022 14:57:01,1671202621453,0,16/12/2022 14:57:01,109680,37,task-xjip,repeat-7g8d#1->-repeat-38fk#1,25992695,BLIND,7678063,NaN,complete,NaN,NaN,computer,Desktop or Laptop,Mac OS 10.15.7,Safari 14.1.2,1920x1080,1920x1000,End of Day 1,SLS,90,A,Pass,End of Day 1,Pass,NaN,NaN,NaN,Pass,NaN,Pass,NaN,schedule_A,schedule_A,35,14,1,Screen 1,Zone1,continue_button,771,NaN,NaN,,NaN,0,1,0,NaN,NaN,NaN,NaN,NaN,trial_left,redBox.png,redBox.png,yellowBox.png,al1_con.png,65,34,NaN,NaN,0.85,0.15,1,1,1,1,Stable,Volatile,2.261,0.866,1.811,2.849,expert
170,1671202622508,16/12/2022 14:57:02,1671202622446,0,16/12/2022 14:57:02,109680,37,task-xjip,repeat-7g8d#1->-repeat-38fk#1,25992695,BLIND,7678063,NaN,complete,NaN,NaN,computer,Desktop or Laptop,Mac OS 10.15.7,Safari 14.1.2,1920x1080,1920x1000,End of Day 1,SLS,90,A,Pass,End of Day 1,Pass,NaN,NaN,NaN,Pass,NaN,Pass,NaN,schedule_A,schedule_A,35,14,2,individual,Zone4,timelimit_screen,1000,NaN,NaN,,NaN,0,1,0,NaN,NaN,1,NaN,NaN,trial_left,redBox.png,redBox.png,yellowBox.png,al1_con.png,65,34,NaN,NaN,0.85,0.15,1,1,1,1,Stable,Volatile,2.261,0.866,1.811,2.849,expert
171,1671202623520,16/12/2022 14:57:03,1671202623139,0,16/12/2022 14:57:03,109680,37,task-xjip,repeat-7g8d#1->-repeat-38fk#1,25992695,BLIND,7678063,NaN,complete,NaN,NaN,computer,Desktop or Laptop,Mac OS 10.15.7,Safari 14.1.2,1920x1080,1920x1000,End of Day 1,SLS,90,A,Pass,End of Day 1,Pass,NaN,NaN,NaN,Pass,NaN,Pass,NaN,schedule_A,schedule_A,35,14,3,offer,Zone2,response_button_image,682,NaN,NaN,redBox.png,1,1,0,0,NaN,NaN,NaN,NaN,NaN,trial_left,redBox.png,redBox.png,yellowBox.png,al1_con.png,65,34,NaN,NaN,0.85,0.15,1,1,1,1,Stable,Volatile,2.261,0.866,1.811,2.849,expert
172,1671202625184,16/12/2022 14:57:05,1671202625129,0,16/12/2022 14:57:05,109680,37,task-xjip,repeat-7g8d#1->-repeat-38fk#1,25992695,BLIND,7678063,NaN,complete,NaN,NaN,computer,Desktop or Laptop,Mac OS 10.15.7,Safari 14.1.2,1920x1080,1920x1000,End of Day 1,SLS,90,A,Pass,End of Day 1,Pass,NaN,NaN,NaN,Pass,NaN,Pass,NaN,schedule_A,schedule_A,35,14,4,feedback_l,Zone7,timelimit_screen,2000,NaN,NaN,,NaN,0,1,0,NaN,NaN,1,NaN,NaN,trial_left,redBox.png,redBox.png,yellowBox.png,al1_con.png,65,34,NaN,NaN,0.85,0.15,1,1,1,1,Stable,Volatile,2.261,0.866,1.811,2.849,expert
173,1671202625348,16/12/2022 14:57:05,1671202625278,0,16/12/2022 14:57:05,109680,37,task-xjip,repeat-7g8d#1->-repeat-38fk#1,25992695,BLIND,7678063,NaN,complete,NaN,NaN,computer,Desktop or Laptop,Mac OS 10.15.7,Safari 14.1.2,1920x1080,1920x1000,End of Day 1,SLS,90,A,Pass,End of Day 1,Pass,NaN,NaN,NaN,Pass,NaN,Pass,NaN,schedule_A,schedule_A,35,14,6,end,Zone1,timelimit_screen,148,NaN,NaN,,NaN,0,1,0,NaN,NaN,1,NaN,NaN,trial_left,redBox.png,redBox.png,yellowBox.png,al1_con.png,65,34,NaN,NaN,0.85,0.15,1,1,1,1,Stable,Volatile,2.261,0.866,1.811,2.849,expert
174,1671202626332,16/12/2022 14:57:06,1671202626278,0,16/12/2022 14:57:06,109680,37,task-xjip,repeat-7g8d#1->-repeat-38fk#1,25992695,BLIND,7678063,NaN,complete,NaN,NaN,computer,Desktop or Laptop,Mac OS 10.15.7,Safari 14.1.2,1920x1080,1920x1000,End of Day 1,SLS,90,A,Pass,End of Day 1,Pass,NaN,NaN,NaN,Pass,NaN,Pass,NaN,schedule_A,schedule_A,36,21,1,Screen 1,Zone1,continue_button,985,NaN,NaN,,NaN,0,1,0,NaN,NaN,NaN,NaN,NaN,trial_right,redBox.png,redBox.png,yellowBox.png,al1_con.png,66,35,NaN,NaN,0.85,0.15,1,0,0,1,Stable,Volatile,1.807,1.029,1.634,2.092,expert
175,1671202627321,16/12/2022 14:57:07,1671202627263,0,16/12/2022 14:57:07,109680,37,task-xjip,repeat-7g8d#1->-repeat-38fk#1,25992695,BLIND,7678063,NaN,complete,NaN,NaN,computer,Desktop or Laptop,Mac OS 10.15.7,Safari 14.1.2,1920x1080,1920x1000,End of Day 1,SLS,90,A,Pass,End of Day 1,Pass,NaN,NaN,NaN,Pass,NaN,Pass,NaN,schedule_A,schedule_A,36,21,2,individual,Zone4,timelimit_screen,1000,NaN,NaN,,NaN,0,1,0,NaN,NaN,1,NaN,NaN,trial_right,redBox.png,redBox.png,yellowBox.png,al1_con.png,66,35,NaN,NaN,0.85,0.15,1,0,0,1,Stable,Volatile,1.807,1.029,1.634,2.092,expert
176,1671202627741,16/12/2022 14:57:07,1671202627685,0,16/12/2022 14:57:07,109680,37,task-xjip,repeat-7g8d#1->-repeat-38fk#1,25992695,BLIND,7678063,NaN,complete,NaN,NaN,computer,Desktop or Laptop,Mac OS 10.15.7,Safari 14.1.2,1920x1080,1920x1000,End of Day 1,SLS,90,A,Pass,End of Day 1,Pass,NaN,NaN,NaN,Pass,NaN,Pass,NaN,schedule_A,schedule_A,36,21,3,offer,Zone2,response_button_image,412.000000000029,NaN,NaN,redBox.png,1,1,0,0,NaN,NaN,NaN,NaN,NaN,trial_right,redBox.png,redBox.png,yellowBox.png,al1_con.png,66,35,NaN,NaN,0.85,0.15,1,0,0,1,Stable,Volatile,1.807,1.029,1.634,2.092,expert
