EventIndex,UTCTimestamp,UTCDate,LocalTimestamp,LocalTimezone,LocalDate,ExperimentID,ExperimentVersion,TreeNodeKey,RepeatKey,ScheduleID,ParticipantPublicID,ParticipantPrivateID,ParticipantStartingGroup,ParticipantStatus,ParticipantCompletionCode,ParticipantExternalSessionID,ParticipantDeviceType,ParticipantDevice,ParticipantOS,ParticipantBrowser,ParticipantMonitorSize,ParticipantViewportSize,Checkpoint,TaskName,TaskVersion,randomiser_6z9f,branch_kxy7,checkpoint_tqwf,branch_rtog,branch_7dgx,checkpoint_mqen,branch_yx2c,branch_3n8o,branch_f1s6,branch_x6l7,branch_21hs,Spreadsheet,SpreadsheetName,SpreadsheetRow,TrialNumber,ScreenNumber,ScreenName,ZoneName,ZoneType,ReactionTime,ReactionOnset,ResponseType,Response,Attempt,Correct,Incorrect,Dishonest,XCoordinate,YCoordinate,TimedOut,randomise_blocks,randomise_trials,display,ANSWER,left_button,right_button,advice,orderno,trialno,ShowProgressBar,image,prob_blue_corr,prob_group_corr,corr_ans,group_corr,group_choice,blue_pos,indiv_vol,soc_vol,ITI_1,ITI_2,ITI_3,ITI_4,condition
1,1671283059486,17/12/2022 13:17:39,1671283059351,0,17/12/2022 13:17:39,109680,37,task-qrxs,repeat-7g8d#1->-repeat-38fk#1->-repeat-qjz7#1->-repeat-5t6i#1,26003425,BLIND,7678063,NaN,complete,NaN,NaN,computer,Desktop or Laptop,Mac OS 10.15.7,Safari 14.1.2,1920x1080,1920x1000,End of Day 1,SLS,90,A,Pass,End of Day 1,Pass,NaN,NaN,NaN,Pass,NaN,Pass,NaN,schedule_B,,NaN,NaN,NaN,,,,NaN,NaN,NaN,,NaN,0,1,0,NaN,NaN,NaN,NaN,NaN,,,,,,NaN,NaN,NaN,NaN,NaN,NaN,NaN,NaN,NaN,NaN,,,NaN,NaN,NaN,NaN,
2,1671283062012,17/12/2022 13:17:42,1671283061941,0,17/12/2022 13:17:41,109680,37,task-qrxs,repeat-7g8d#1->-repeat-38fk#1->-repeat-qjz7#1->-repeat-5t6i#1,26003425,BLIND,7678063,NaN,complete,NaN,NaN,computer,Desktop or Laptop,Mac OS 10.15.7,Safari 14.1.2,1920x1080,1920x1000,End of Day 1,SLS,90,A,Pass,End of Day 1,Pass,NaN,NaN,NaN,Pass,NaN,Pass,NaN,schedule_B,schedule_B,1,1,1,Screen 1,Zone1,continue_button,1904,NaN,NaN,,NaN,0,1,0,NaN,NaN,NaN,NaN,NaN,getReadyb,,,,,1,NaN,NaN,NaN,NaN,NaN,NaN,NaN,NaN,NaN,,,NaN,NaN,NaN,NaN,
3,1671283064558,17/12/2022 13:17:44,1671283064494,0,17/12/2022 13:17:44,109680,37,task-qrxs,repeat-7g8d#1->-repeat-38fk#1->-repeat-qjz7#1->-repeat-5t6i#1,26003425,BLIND,7678063,NaN,complete,NaN,NaN,computer,Desktop or Laptop,Mac OS 10.15.7,Safari 14.1.2,1920x1080,1920x1000,End of Day 1,SLS,90,A,Pass,End of Day 1,Pass,NaN,NaN,NaN,Pass,NaN,Pass,NaN,schedule_B,schedule_B,1,1,2,Screen 2,Zone1,continue_button,2545,NaN,NaN,,NaN,0,1,0,NaN,NaN,NaN,NaN,NaN,getReadyb,,,,,1,NaN,NaN,NaN,NaN,NaN,NaN,NaN,NaN,NaN,,,NaN,NaN,NaN,NaN,
4,1671283066646,17/12/2022 13:17:46,1671283066564,0,17/12/2022 13:17:46,109680,37,task-qrxs,repeat-7g8d#1->-repeat-38fk#1->-repeat-qjz7#1->-repeat-5t6i#1,26003425,BLIND,7678063,NaN,complete,NaN,NaN,computer,Desktop or Laptop,Mac OS 10.15.7,Safari 14.1.2,1920x1080,1920x1000,End of Day 1,SLS,90,A,Pass,End of Day 1,Pass,NaN,NaN,NaN,Pass,NaN,Pass,NaN,schedule_B,schedule_B,2,1,1,Screen 1,Zone1,continue_button,2048,NaN,NaN,,NaN,0,1,0,NaN,NaN,NaN,NaN,NaN,trial_right,greenBox.png,greenBox.png,blueBox.png,al2_uncon.png,2,1,NaN,NaN,0.85,0.15,0,0,1,0,Stable,Stable,3.471,0.525,1.66,2.529,inexpert
5,1671283067611,17/12/2022 13:17:47,1671283067549,0,17/12/2022 13:17:47,109680,37,task-qrxs,repeat-7g8d#1->-repeat-38fk#1->-repeat-qjz7#1->-repeat-5t6i#1,26003425,BLIND,7678063,NaN,complete,NaN,NaN,computer,Desktop or Laptop,Mac OS 10.15.7,Safari 14.1.2,1920x1080,1920x1000,End of Day 1,SLS,90,A,Pass,End of Day 1,Pass,NaN,NaN,NaN,Pass,NaN,Pass,NaN,schedule_B,schedule_B,2,1,2,individual,Zone4,timelimit_screen,1000,NaN,NaN,,NaN,0,1,0,NaN,NaN,1,NaN,NaN,trial_right,greenBox.png,greenBox.png,blueBox.png,al2_uncon.png,2,1,NaN,NaN,0.85,0.15,0,0,1,0,Stable,Stable,3.471,0.525,1.66,2.529,inexpert
6,1671283068428,17/12/2022 13:17:48,1671283068351,0,17/12/2022 13:17:48,109680,37,task-qrxs,repeat-7g8d#1->-repeat-38fk#1->-repeat-qjz7#1->-repeat-5t6i#1,26003425,BLIND,7678063,NaN,complete,NaN,NaN,computer,Desktop or Laptop,Mac OS 10.15.7,Safari 14.1.2,1920x1080,1920x1000,End of Day 1,SLS,90,A,Pass,End of Day 1,Pass,NaN,NaN,NaN,Pass,NaN,Pass,NaN,schedule_B,schedule_B,2,1,3,offer,Zone3,response_button_image,787,NaN,NaN,blueBox.png,1,0,1,0,NaN,NaN,NaN,NaN,NaN,trial_right,greenBox.png,greenBox.png,blueBox.png,al2_uncon.png,2,1,NaN,NaN,0.85,0.15,0,0,1,0,Stable,Stable,3.471,0.525,1.66,2.529,inexpert
7,1671283070409,17/12/2022 13:17:50,1671283070348,0,17/12/2022 13:17:50,109680,37,task-qrxs,repeat-7g8d#1->-repeat-38fk#1->-repeat-qjz7#1->-repeat-5t6i#1,26003425,BLIND,7678063,NaN,complete,NaN,NaN,computer,Desktop or Laptop,Mac OS 10.15.7,Safari 14.1.2,1920x1080,1920x1000,End of Day 1,SLS,90,A,Pass,End of Day 1,Pass,NaN,NaN,NaN,Pass,NaN,Pass,NaN,schedule_B,schedule_B,2,1,5,feedback_r,Zone7,timelimit_screen,2001,NaN,NaN,,NaN,0,1,0,NaN,NaN,1,NaN,NaN,trial_right,greenBox.png,greenBox.png,blueBox.png,al2_uncon.png,2,1,NaN,NaN,0.85,0.15,0,0,1,0,Stable,Stable,3.471,0.525,1.66,2.529,inexpert
8,1671283070564,17/12/2022 13:17:50,1671283070499,0,17/12/2022 13:17:50,109680,37,task-qrxs,repeat-7g8d#1->-repeat-38fk#1->-repeat-qjz7#1->-repeat-5t6i#1,26003425,BLIND,7678063,NaN,complete,NaN,NaN,computer,Desktop or Laptop,Mac OS 10.15.7,Safari 14.1.2,1920x1080,1920x1000,End of Day 1,SLS,90,A,Pass,End of Day 1,Pass,NaN,NaN,NaN,Pass,NaN,Pass,NaN,schedule_B,schedule_B,2,1,6,end,Zone1,timelimit_screen,151,NaN,NaN,,NaN,0,1,0,NaN,NaN,1,NaN,NaN,trial_right,greenBox.png,greenBox.png,blueBox.png,al2_uncon.png,2,1,NaN,NaN,0.85,0.15,0,0,1,0,Stable,Stable,3.471,0.525,1.66,2.529,inexpert
9,1671283071893,17/12/2022 13:17:51,1671283071817,0,17/12/2022 13:17:51,109680,37,task-qrxs,repeat-7g8d#1->-repeat-38fk#1->-repeat-qjz7#1->-repeat-5t6i#1,26003425,BLIND,7678063,NaN,complete,NaN,NaN,computer,Desktop or Laptop,Mac OS 10.15.7,Safari 14.1.2,1920x1080,1920x1000,End of Day 1,SLS,90,A,Pass,End of Day 1,Pass,NaN,NaN,NaN,Pass,NaN,Pass,NaN,schedule_B,schedule_B,3,1,1,Screen 1,Zone1,continue_button,1295,NaN,NaN,,NaN,0,1,0,NaN,NaN,NaN,NaN,NaN,trial_left,blueBox.png,greenBox.png,blueBox.png,al2_uncon.png,3,2,NaN,NaN,0.85,0.15,1,0,0,0,Stable,Stable,1.782,1.168,1.168,2.462,inexpert
10,1671283072928,17/12/2022 13:17:52,1671283072818,0,17/12/2022 13:17:52,109680,37,task-qrxs,repeat-7g8d#1->-repeat-38fk#1->-repeat-qjz7#1->-repeat-5t6i#1,26003425,BLIND,7678063,NaN,complete,NaN,NaN,computer,Desktop or Laptop,Mac OS 10.15.7,Safari 14.1.2,1920x1080,1920x1000,End of Day 1,SLS,90,A,Pass,End of Day 1,Pass,NaN,NaN,NaN,Pass,NaN,Pass,NaN,schedule_B,schedule_B,3,1,2,individual,Zone4,timelimit_screen,1002,NaN,NaN,,NaN,0,1,0,NaN,NaN,1,NaN,NaN,trial_left,blueBox.png,greenBox.png,blueBox.png,al2_uncon.png,3,2,NaN,NaN,0.85,0.15,1,0,0,0,Stable,Stable,1.782,1.168,1.168,2.462,inexpert
11,1671283073415,17/12/2022 13:17:53,1671283073358,0,17/12/2022 13:17:53,109680,37,task-qrxs,repeat-7g8d#1->-repeat-38fk#1->-repeat-qjz7#1->-repeat-5t6i#1,26003425,BLIND,7678063,NaN,complete,NaN,NaN,computer,Desktop or Laptop,Mac OS 10.15.7,Safari 14.1.2,1920x1080,1920x1000,End of Day 1,SLS,90,A,Pass,End of Day 1,Pass,NaN,NaN,NaN,Pass,NaN,Pass,NaN,schedule_B,schedule_B,3,1,3,offer,Zone2,response_button_image,529.000000000002,NaN,NaN,greenBox.png,1,0,1,0,NaN,NaN,NaN,NaN,NaN,trial_left,blueBox.png,greenBox.png,blueBox.png,al2_uncon.png,3,2,NaN,NaN,0.85,0.15,1,0,0,0,Stable,Stable,1.782,1.168,1.168,2.462,inexpert
12,1671283075404,17/12/2022 13:17:55,1671283075349,0,17/12/2022 13:17:55,109680,37,task-qrxs,repeat-7g8d#1->-repeat-38fk#1->-repeat-qjz7#1->-repeat-5t6i#1,26003425,BLIND,7678063,NaN,complete,NaN,NaN,computer,Desktop or Laptop,Mac OS 10.15.7,Safari 14.1.2,1920x1080,1920x1000,End of Day 1,SLS,90,A,Pass,End of Day 1,Pass,NaN,NaN,NaN,Pass,NaN,Pass,NaN,schedule_B,schedule_B,3,1,4,feedback_l,Zone7,timelimit_screen,2000,NaN,NaN,,NaN,0,1,0,NaN,NaN,1,NaN,NaN,trial_left,blueBox.png,greenBox.png,blueBox.png,al2_uncon.png,3,2,NaN,NaN,0.85,0.15,1,0,0,0,Stable,Stable,1.782,1.168,1.168,2.462,inexpert
13,1671283075568,17/12/2022 13:17:55,1671283075499,0,17/12/2022 13:17:55,109680,37,task-qrxs,repeat-7g8d#1->-repeat-38fk#1->-repeat-qjz7#1->-repeat-5t6i#1,26003425,BLIND,7678063,NaN,complete,NaN,NaN,computer,Desktop or Laptop,Mac OS 10.15.7,Safari 14.1.2,1920x1080,1920x1000,End of Day 1,SLS,90,A,Pass,End of Day 1,Pass,NaN,NaN,NaN,Pass,NaN,Pass,NaN,schedule_B,schedule_B,3,1,6,end,Zone1,timelimit_screen,151,NaN,NaN,,NaN,0,1,0,NaN,NaN,1,NaN,NaN,trial_left,blueBox.png,greenBox.png,blueBox.png,al2_uncon.png,3,2,NaN,NaN,0.85,0.15,1,0,0,0,Stable,Stable,1.782,1.168,1.168,2.462,inexpert
14,1671283076289,17/12/2022 13:17:56,1671283076228,0,17/12/2022 13:17:56,109680,37,task-qrxs,repeat-7g8d#1->-repeat-38fk#1->-repeat-qjz7#1->-repeat-5t6i#1,26003425,BLIND,7678063,NaN,complete,NaN,NaN,computer,Desktop or Laptop,Mac OS 10.15.7,Safari 14.1.2,1920x1080,1920x1000,End of Day 1,SLS,90,A,Pass,End of Day 1,Pass,NaN,NaN,NaN,Pass,NaN,Pass,NaN,schedule_B,schedule_B,4,2,1,Screen 1,Zone1,continue_button,708,NaN,NaN,,NaN,0,1,0,NaN,NaN,NaN,NaN,NaN,trial_left,blueBox.png,greenBox.png,blueBox.png,al2_uncon.png,4,3,NaN,NaN,0.85,0.15,1,0,0,0,Stable,Stable,1.983,1.181,0.538,1.588,inexpert
15,1671283077278,17/12/2022 13:17:57,1671283077216,0,17/12/2022 13:17:57,109680,37,task-qrxs,repeat-7g8d#1->-repeat-38fk#1->-repeat-qjz7#1->-repeat-5t6i#1,26003425,BLIND,7678063,NaN,complete,NaN,NaN,computer,Desktop or Laptop,Mac OS 10.15.7,Safari 14.1.2,1920x1080,1920x1000,End of Day 1,SLS,90,A,Pass,End of Day 1,Pass,NaN,NaN,NaN,Pass,NaN,Pass,NaN,schedule_B,schedule_B,4,2,2,individual,Zone4,timelimit_screen,1001,NaN,NaN,,NaN,0,1,0,NaN,NaN,1,NaN,NaN,trial_left,blueBox.png,greenBox.png,blueBox.png,al2_uncon.png,4,3,NaN,NaN,0.85,0.15,1,0,0,0,Stable,Stable,1.983,1.181,0.538,1.588,inexpert
16,1671283077973,17/12/2022 13:17:57,1671283077915,0,17/12/2022 13:17:57,109680,37,task-qrxs,repeat-7g8d#1->-repeat-38fk#1->-repeat-qjz7#1->-repeat-5t6i#1,26003425,BLIND,7678063,NaN,complete,NaN,NaN,computer,Desktop or Laptop,Mac OS 10.15.7,Safari 14.1.2,1920x1080,1920x1000,End of Day 1,SLS,90,A,Pass,End of Day 1,Pass,NaN,NaN,NaN,Pass,NaN,Pass,NaN,schedule_B,schedule_B,4,2,3,offer,bluebox,response_button_image,688,NaN,NaN,blueBox.png,1,1,0,0,NaN,NaN,NaN,NaN,NaN,trial_left,blueBox.png,greenBox.png,blueBox.png,al2_uncon.png,4,3,NaN,NaN,0.85,0.15,1,0,0,0,Stable,Stable,1.983,1.181,0.538,1.588,inexpert
17,1671283079962,17/12/2022 13:17:59,1671283079899,0,17/12/2022 13:17:59,109680,37,task-qrxs,repeat-7g8d#1->-repeat-38fk#1->-repeat-qjz7#1->-repeat-5t6i#1,26003425,BLIND,7678063,NaN,complete,NaN,NaN,computer,Desktop or Laptop,Mac OS 10.15.7,Safari 14.1.2,1920x1080,1920x1000,End of Day 1,SLS,90,A,Pass,End of Day 1,Pass,NaN,NaN,NaN,Pass,NaN,Pass,NaN,schedule_B,schedule_B,4,2,5,feedback_r,Zone7,timelimit_screen,1999,NaN,NaN,,NaN,0,1,0,NaN,NaN,1,NaN,NaN,trial_left,blueBox.png,greenBox.png,blueBox.png,al2_uncon.png,4,3,NaN,NaN,0.85,0.15,1,0,0,0,Stable,Stable,1.983,1.181,0.538,1.588,inexpert
18,1671283080174,17/12/2022 13:18:00,1671283080048,0,17/12/2022 13:18:00,109680,37,task-qrxs,repeat-7g8d#1->-repeat-38fk#1->-repeat-qjz7#1->-repeat-5t6i#1,26003425,BLIND,7678063,NaN,complete,NaN,NaN,computer,Desktop or Laptop,Mac OS 10.15.7,Safari 14.1.2,1920x1080,1920x1000,End of Day 1,SLS,90,A,Pass,End of Day 1,Pass,NaN,NaN,NaN,Pass,NaN,Pass,NaN,schedule_B,schedule_B,4,2,6,end,Zone1,timelimit_screen,150,NaN,NaN,,NaN,0,1,0,NaN,NaN,1,NaN,NaN,trial_left,blueBox.png,greenBox.png,blueBox.png,al2_uncon.png,4,3,NaN,NaN,0.85,0.15,1,0,0,0,Stable,Stable,1.983,1.181,0.538,1.588,inexpert
19,1671283080739,17/12/2022 13:18:00,1671283080682,0,17/12/2022 13:18:00,109680,37,task-qrxs,repeat-7g8d#1->-repeat-38fk#1->-repeat-qjz7#1->-repeat-5t6i#1,26003425,BLIND,7678063,NaN,complete,NaN,NaN,computer,Desktop or Laptop,Mac OS 10.15.7,Safari 14.1.2,1920x1080,1920x1000,End of Day 1,SLS,90,A,Pass,End of Day 1,Pass,NaN,NaN,NaN,Pass,NaN,Pass,NaN,schedule_B,schedule_B,5,2,1,Screen 1,Zone1,continue_button,580,NaN,NaN,,NaN,0,1,0,NaN,NaN,NaN,NaN,NaN,trial_right,greenBox.png,greenBox.png,blueBox.png,al2_uncon.png,5,4,NaN,NaN,0.85,0.15,0,0,1,0,Stable,Stable,1.529,0.891,1.004,1,inexpert
20,1671283081735,17/12/2022 13:18:01,1671283081666,0,17/12/2022 13:18:01,109680,37,task-qrxs,repeat-7g8d#1->-repeat-38fk#1->-repeat-qjz7#1->-repeat-5t6i#1,26003425,BLIND,7678063,NaN,complete,NaN,NaN,computer,Desktop or Laptop,Mac OS 10.15.7,Safari 14.1.2,1920x1080,1920x1000,End of Day 1,SLS,90,A,Pass,End of Day 1,Pass,NaN,NaN,NaN,Pass,NaN,Pass,NaN,schedule_B,schedule_B,5,2,2,individual,Zone4,timelimit_screen,1000,NaN,NaN,,NaN,0,1,0,NaN,NaN,1,NaN,NaN,trial_right,greenBox.png,greenBox.png,blueBox.png,al2_uncon.png,5,4,NaN,NaN,0.85,0.15,0,0,1,0,Stable,Stable,1.529,0.891,1.004,1,inexpert
21,1671283082645,17/12/2022 13:18:02,1671283082583,0,17/12/2022 13:18:02,109680,37,task-qrxs,repeat-7g8d#1->-repeat-38fk#1->-repeat-qjz7#1->-repeat-5t6i#1,26003425,BLIND,7678063,NaN,complete,NaN,NaN,computer,Desktop or Laptop,Mac OS 10.15.7,Safari 14.1.2,1920x1080,1920x1000,End of Day 1,SLS,90,A,Pass,End of Day 1,Pass,NaN,NaN,NaN,Pass,NaN,Pass,NaN,schedule_B,schedule_B,5,2,3,offer,Zone2,response_button_image,906,NaN,NaN,greenBox.png,1,1,0,0,NaN,NaN,NaN,NaN,NaN,trial_right,greenBox.png,greenBox.png,blueBox.png,al2_uncon.png,5,4,NaN,NaN,0.85,0.15,0,0,1,0,Stable,Stable,1.529,0.891,1.004,1,inexpert
22,1671283084663,17/12/2022 13:18:04,1671283084583,0,17/12/2022 13:18:04,109680,37,task-qrxs,repeat-7g8d#1->-repeat-38fk#1->-repeat-qjz7#1->-repeat-5t6i#1,26003425,BLIND,7678063,NaN,complete,NaN,NaN,computer,Desktop or Laptop,Mac OS 10.15.7,Safari 14.1.2,1920x1080,1920x1000,End of Day 1,SLS,90,A,Pass,End of Day 1,Pass,NaN,NaN,NaN,Pass,NaN,Pass,NaN,schedule_B,schedule_B,5,2,4,feedback_l,Zone7,timelimit_screen,2001,NaN,NaN,,NaN,0,1,0,NaN,NaN,1,NaN,NaN,trial_right,greenBox.png,greenBox.png,blueBox.png,al2_uncon.png,5,4,NaN,NaN,0.85,0.15,0,0,1,0,Stable,Stable,1.529,0.891,1.004,1,inexpert
23,1671283084941,17/12/2022 13:18:04,1671283084732,0,17/12/2022 13:18:04,109680,37,task-qrxs,repeat-7g8d#1->-repeat-38fk#1->-repeat-qjz7#1->-repeat-5t6i#1,26003425,BLIND,7678063,NaN,complete,NaN,NaN,computer,Desktop or Laptop,Mac OS 10.15.7,Safari 14.1.2,1920x1080,1920x1000,End of Day 1,SLS,90,A,Pass,End of Day 1,Pass,NaN,NaN,NaN,Pass,NaN,Pass,NaN,schedule_B,schedule_B,5,2,6,end,Zone1,timelimit_screen,149,NaN,NaN,,NaN,0,1,0,NaN,NaN,1,NaN,NaN,trial_right,greenBox.png,greenBox.png,blueBox.png,al2_uncon.png,5,4,NaN,NaN,0.85,0.15,0,0,1,0,Stable,Stable,1.529,0.891,1.004,1,inexpert
24,1671283085772,17/12/2022 13:18:05,1671283085710,0,17/12/2022 13:18:05,109680,37,task-qrxs,repeat-7g8d#1->-repeat-38fk#1->-repeat-qjz7#1->-repeat-5t6i#1,26003425,BLIND,7678063,NaN,complete,NaN,NaN,computer,Desktop or Laptop,Mac OS 10.15.7,Safari 14.1.2,1920x1080,1920x1000,End of Day 1,SLS,90,A,Pass,End of Day 1,Pass,NaN,NaN,NaN,Pass,NaN,Pass,NaN,schedule_B,schedule_B,6,3,1,Screen 1,Zone1,continue_button,961,NaN,NaN,,NaN,0,1,0,NaN,NaN,NaN,NaN,NaN,trial_left,blueBox.png,greenBox.png,blueBox.png,al2_uncon.png,6,5,NaN,NaN,0.85,0.15,1,0,0,0,Stable,Stable,1.832,1.118,0.752,1.79,inexpert
25,1671283086807,17/12/2022 13:18:06,1671283086699,0,17/12/2022 13:18:06,109680,37,task-qrxs,repeat-7g8d#1->-repeat-38fk#1->-repeat-qjz7#1->-repeat-5t6i#1,26003425,BLIND,7678063,NaN,complete,NaN,NaN,computer,Desktop or Laptop,Mac OS 10.15.7,Safari 14.1.2,1920x1080,1920x1000,End of Day 1,SLS,90,A,Pass,End of Day 1,Pass,NaN,NaN,NaN,Pass,NaN,Pass,NaN,schedule_B,schedule_B,6,3,2,individual,Zone4,timelimit_screen,1000,NaN,NaN,,NaN,0,1,0,NaN,NaN,1,NaN,NaN,trial_left,blueBox.png,greenBox.png,blueBox.png,al2_uncon.png,6,5,NaN,NaN,0.85,0.15,1,0,0,0,Stable,Stable,1.832,1.118,0.752,1.79,inexpert
26,1671283087579,17/12/2022 13:18:07,1671283087524,0,17/12/2022 13:18:07,109680,37,task-qrxs,repeat-7g8d#1->-repeat-38fk#1->-repeat-qjz7#1->-repeat-5t6i#1,26003425,BLIND,7678063,NaN,complete,NaN,NaN,computer,Desktop or Laptop,Mac OS 10.15.7,Safari 14.1.2,1920x1080,1920x1000,End of Day 1,SLS,90,A,Pass,End of Day 1,Pass,NaN,NaN,NaN,Pass,NaN,Pass,NaN,schedule_B,schedule_B,6,3,3,offer,bluebox,response_button_image,813,NaN,NaN,blueBox.png,1,1,0,0,NaN,NaN,NaN,NaN,NaN,trial_left,blueBox.png,greenBox.png,blueBox.png,al2_uncon.png,6,5,NaN,NaN,0.85,0.15,1,0,0,0,Stable,Stable,1.832,1.118,0.752,1.79,inexpert
27,1671283089574,17/12/2022 13:18:09,1671283089516,0,17/12/2022 13:18:09,109680,37,task-qrxs,repeat-7g8d#1->-repeat-38fk#1->-repeat-qjz7#1->-repeat-5t6i#1,26003425,BLIND,7678063,NaN,complete,NaN,NaN,computer,Desktop or Laptop,Mac OS 10.15.7,Safari 14.1.2,1920x1080,1920x1000,End of Day 1,SLS,90,A,Pass,End of Day 1,Pass,NaN,NaN,NaN,Pass,NaN,Pass,NaN,schedule_B,schedule_B,6,3,5,feedback_r,Zone7,timelimit_screen,2000,NaN,NaN,,NaN,0,1,0,NaN,NaN,1,NaN,NaN,trial_left,blueBox.png,greenBox.png,blueBox.png,al2_uncon.png,6,5,NaN,NaN,0.85,0.15,1,0,0,0,Stable,Stable,1.832,1.118,0.752,1.79,inexpert
28,1671283089734,17/12/2022 13:18:09,1671283089665,0,17/12/2022 13:18:09,109680,37,task-qrxs,repeat-7g8d#1->-repeat-38fk#1->-repeat-qjz7#1->-repeat-5t6i#1,26003425,BLIND,7678063,NaN,complete,NaN,NaN,computer,Desktop or Laptop,Mac OS 10.15.7,Safari 14.1.2,1920x1080,1920x1000,End of Day 1,SLS,90,A,Pass,End of Day 1,Pass,NaN,NaN,NaN,Pass,NaN,Pass,NaN,schedule_B,schedule_B,6,3,6,end,Zone1,timelimit_screen,149,NaN,NaN,,NaN,0,1,0,NaN,NaN,1,NaN,NaN,trial_left,blueBox.png,greenBox.png,blueBox.png,al2_uncon.png,6,5,NaN,NaN,0.85,0.15,1,0,0,0,Stable,Stable,1.832,1.118,0.752,1.79,inexpert
29,1671283090384,17/12/2022 13:18:10,1671283090324,0,17/12/2022 13:18:10,109680,37,task-qrxs,repeat-7g8d#1->-repeat-38fk#1->-repeat-qjz7#1->-repeat-5t6i#1,26003425,BLIND,7678063,NaN,complete,NaN,NaN,computer,Desktop or Laptop,Mac OS 10.15.7,Safari 14.1.2,1920x1080,1920x1000,End of Day 1,SLS,90,A,Pass,End of Day 1,Pass,NaN,NaN,NaN,Pass,NaN,Pass,NaN,schedule_B,schedule_B,7,3,1,Screen 1,Zone1,continue_button,639.000000000004,NaN,NaN,,NaN,0,1,0,NaN,NaN,NaN,NaN,NaN,trial_right,greenBox.png,greenBox.png,blueBox.png,al2_uncon.png,7,6,NaN,NaN,0.15,0.15,0,0,1,0,Stable,Stable,3.294,0.815,1.282,2.664,inexpert
30,1671283091390,17/12/2022 13:18:11,1671283091316,0,17/12/2022 13:18:11,109680,37,task-qrxs,repeat-7g8d#1->-repeat-38fk#1->-repeat-qjz7#1->-repeat-5t6i#1,26003425,BLIND,7678063,NaN,complete,NaN,NaN,computer,Desktop or Laptop,Mac OS 10.15.7,Safari 14.1.2,1920x1080,1920x1000,End of Day 1,SLS,90,A,Pass,End of Day 1,Pass,NaN,NaN,NaN,Pass,NaN,Pass,NaN,schedule_B,schedule_B,7,3,2,individual,Zone4,timelimit_screen,1001,NaN,NaN,,NaN,0,1,0,NaN,NaN,1,NaN,NaN,trial_right,greenBox.png,greenBox.png,blueBox.png,al2_uncon.png,7,6,NaN,NaN,0.15,0.15,0,0,1,0,Stable,Stable,3.294,0.815,1.282,2.664,inexpert
31,1671283092126,17/12/2022 13:18:12,1671283092067,0,17/12/2022 13:18:12,109680,37,task-qrxs,repeat-7g8d#1->-repeat-38fk#1->-repeat-qjz7#1->-repeat-5t6i#1,26003425,BLIND,7678063,NaN,complete,NaN,NaN,computer,Desktop or Laptop,Mac OS 10.15.7,Safari 14.1.2,1920x1080,1920x1000,End of Day 1,SLS,90,A,Pass,End of Day 1,Pass,NaN,NaN,NaN,Pass,NaN,Pass,NaN,schedule_B,schedule_B,7,3,3,offer,Zone2,response_button_image,741,NaN,NaN,greenBox.png,1,1,0,0,NaN,NaN,NaN,NaN,NaN,trial_right,greenBox.png,greenBox.png,blueBox.png,al2_uncon.png,7,6,NaN,NaN,0.15,0.15,0,0,1,0,Stable,Stable,3.294,0.815,1.282,2.664,inexpert
32,1671283094123,17/12/2022 13:18:14,1671283094065,0,17/12/2022 13:18:14,109680,37,task-qrxs,repeat-7g8d#1->-repeat-38fk#1->-repeat-qjz7#1->-repeat-5t6i#1,26003425,BLIND,7678063,NaN,complete,NaN,NaN,computer,Desktop or Laptop,Mac OS 10.15.7,Safari 14.1.2,1920x1080,1920x1000,End of Day 1,SLS,90,A,Pass,End of Day 1,Pass,NaN,NaN,NaN,Pass,NaN,Pass,NaN,schedule_B,schedule_B,7,3,4,feedback_l,Zone7,timelimit_screen,1999,NaN,NaN,,NaN,0,1,0,NaN,NaN,1,NaN,NaN,trial_right,greenBox.png,greenBox.png,blueBox.png,al2_uncon.png,7,6,NaN,NaN,0.15,0.15,0,0,1,0,Stable,Stable,3.294,0.815,1.282,2.664,inexpert
33,1671283094271,17/12/2022 13:18:14,1671283094215,0,17/12/2022 13:18:14,109680,37,task-qrxs,repeat-7g8d#1->-repeat-38fk#1->-repeat-qjz7#1->-repeat-5t6i#1,26003425,BLIND,7678063,NaN,complete,NaN,NaN,computer,Desktop or Laptop,Mac OS 10.15.7,Safari 14.1.2,1920x1080,1920x1000,End of Day 1,SLS,90,A,Pass,End of Day 1,Pass,NaN,NaN,NaN,Pass,NaN,Pass,NaN,schedule_B,schedule_B,7,3,6,end,Zone1,timelimit_screen,150,NaN,NaN,,NaN,0,1,0,NaN,NaN,1,NaN,NaN,trial_right,greenBox.png,greenBox.png,blueBox.png,al2_uncon.png,7,6,NaN,NaN,0.15,0.15,0,0,1,0,Stable,Stable,3.294,0.815,1.282,2.664,inexpert
34,1671283095281,17/12/2022 13:18:15,1671283095218,0,17/12/2022 13:18:15,109680,37,task-qrxs,repeat-7g8d#1->-repeat-38fk#1->-repeat-qjz7#1->-repeat-5t6i#1,26003425,BLIND,7678063,NaN,complete,NaN,NaN,computer,Desktop or Laptop,Mac OS 10.15.7,Safari 14.1.2,1920x1080,1920x1000,End of Day 1,SLS,90,A,Pass,End of Day 1,Pass,NaN,NaN,NaN,Pass,NaN,Pass,NaN,schedule_B,schedule_B,8,4,1,Screen 1,Zone1,continue_button,985,NaN,NaN,,NaN,0,1,0,NaN,NaN,NaN,NaN,NaN,trial_left,greenBox.png,blueBox.png,greenBox.png,al2_uncon.png,8,7,NaN,NaN,0.15,0.15,0,0,1,1,Stable,Stable,3.269,1.37,1.786,2.328,inexpert
35,1671283096288,17/12/2022 13:18:16,1671283096216,0,17/12/2022 13:18:16,109680,37,task-qrxs,repeat-7g8d#1->-repeat-38fk#1->-repeat-qjz7#1->-repeat-5t6i#1,26003425,BLIND,7678063,NaN,complete,NaN,NaN,computer,Desktop or Laptop,Mac OS 10.15.7,Safari 14.1.2,1920x1080,1920x1000,End of Day 1,SLS,90,A,Pass,End of Day 1,Pass,NaN,NaN,NaN,Pass,NaN,Pass,NaN,schedule_B,schedule_B,8,4,2,individual,Zone4,timelimit_screen,1001,NaN,NaN,,NaN,0,1,0,NaN,NaN,1,NaN,NaN,trial_left,greenBox.png,blueBox.png,greenBox.png,al2_uncon.png,8,7,NaN,NaN,0.15,0.15,0,0,1,1,Stable,Stable,3.269,1.37,1.786,2.328,inexpert
36,1671283097015,17/12/2022 13:18:17,1671283096950,0,17/12/2022 13:18:16,109680,37,task-qrxs,repeat-7g8d#1->-repeat-38fk#1->-repeat-qjz7#1->-repeat-5t6i#1,26003425,BLIND,7678063,NaN,complete,NaN,NaN,computer,Desktop or Laptop,Mac OS 10.15.7,Safari 14.1.2,1920x1080,1920x1000,End of Day 1,SLS,90,A,Pass,End of Day 1,Pass,NaN,NaN,NaN,Pass,NaN,Pass,NaN,schedule_B,schedule_B,8,4,3,offer,bluebox,response_button_image,723,NaN,NaN,greenBox.png,1,1,0,0,NaN,NaN,NaN,NaN,NaN,trial_left,greenBox.png,blueBox.png,greenBox.png,al2_uncon.png,8,7,NaN,NaN,0.15,0.15,0,0,1,1,Stable,Stable,3.269,1.37,1.786,2.328,inexpert
37,1671283098991,17/12/2022 13:18:18,1671283098932,0,17/12/2022 13:18:18,109680,37,task-qrxs,repeat-7g8d#1->-repeat-38fk#1->-repeat-qjz7#1->-repeat-5t6i#1,26003425,BLIND,7678063,NaN,complete,NaN,NaN,computer,Desktop or Laptop,Mac OS 10.15.7,Safari 14.1.2,1920x1080,1920x1000,End of Day 1,SLS,90,A,Pass,End of Day 1,Pass,NaN,NaN,NaN,Pass,NaN,Pass,NaN,schedule_B,schedule_B,8,4,5,feedback_r,Zone7,timelimit_screen,2000,NaN,NaN,,NaN,0,1,0,NaN,NaN,1,NaN,NaN,trial_left,greenBox.png,blueBox.png,greenBox.png,al2_uncon.png,8,7,NaN,NaN,0.15,0.15,0,0,1,1,Stable,Stable,3.269,1.37,1.786,2.328,inexpert
38,1671283099135,17/12/2022 13:18:19,1671283099082,0,17/12/2022 13:18:19,109680,37,task-qrxs,repeat-7g8d#1->-repeat-38fk#1->-repeat-qjz7#1->-repeat-5t6i#1,26003425,BLIND,7678063,NaN,complete,NaN,NaN,computer,Desktop or Laptop,Mac OS 10.15.7,Safari 14.1.2,1920x1080,1920x1000,End of Day 1,SLS,90,A,Pass,End of Day 1,Pass,NaN,NaN,NaN,Pass,NaN,Pass,NaN,schedule_B,schedule_B,8,4,6,end,Zone1,timelimit_screen,150,NaN,NaN,,NaN,0,1,0,NaN,NaN,1,NaN,NaN,trial_left,greenBox.png,blueBox.png,greenBox.png,al2_uncon.png,8,7,NaN,NaN,0.15,0.15,0,0,1,1,Stable,Stable,3.269,1.37,1.786,2.328,inexpert
39,1671283100073,17/12/2022 13:18:20,1671283099999,0,17/12/2022 13:18:19,109680,37,task-qrxs,repeat-7g8d#1->-repeat-38fk#1->-repeat-qjz7#1->-repeat-5t6i#1,26003425,BLIND,7678063,NaN,complete,NaN,NaN,computer,Desktop or Laptop,Mac OS 10.15.7,Safari 14.1.2,1920x1080,1920x1000,End of Day 1,SLS,90,A,Pass,End of Day 1,Pass,NaN,NaN,NaN,Pass,NaN,Pass,NaN,schedule_B,schedule_B,9,4,1,Screen 1,Zone1,continue_button,900,NaN,NaN,,NaN,0,1,0,NaN,NaN,NaN,NaN,NaN,trial_right,blueBox.png,blueBox.png,greenBox.png,al2_uncon.png,9,8,NaN,NaN,0.15,0.15,1,0,0,1,Stable,Stable,3.975,0.576,1.256,1.807,inexpert
40,1671283101037,17/12/2022 13:18:21,1671283100983,0,17/12/2022 13:18:20,109680,37,task-qrxs,repeat-7g8d#1->-repeat-38fk#1->-repeat-qjz7#1->-repeat-5t6i#1,26003425,BLIND,7678063,NaN,complete,NaN,NaN,computer,Desktop or Laptop,Mac OS 10.15.7,Safari 14.1.2,1920x1080,1920x1000,End of Day 1,SLS,90,A,Pass,End of Day 1,Pass,NaN,NaN,NaN,Pass,NaN,Pass,NaN,schedule_B,schedule_B,9,4,2,individual,Zone4,timelimit_screen,1001,NaN,NaN,,NaN,0,1,0,NaN,NaN,1,NaN,NaN,trial_right,blueBox.png,blueBox.png,greenBox.png,al2_uncon.png,9,8,NaN,NaN,0.15,0.15,1,0,0,1,Stable,Stable,3.975,0.576,1.256,1.807,inexpert
41,1671283102012,17/12/2022 13:18:22,1671283101899,0,17/12/2022 13:18:21,109680,37,task-qrxs,repeat-7g8d#1->-repeat-38fk#1->-repeat-qjz7#1->-repeat-5t6i#1,26003425,BLIND,7678063,NaN,complete,NaN,NaN,computer,Desktop or Laptop,Mac OS 10.15.7,Safari 14.1.2,1920x1080,1920x1000,End of Day 1,SLS,90,A,Pass,End of Day 1,Pass,NaN,NaN,NaN,Pass,NaN,Pass,NaN,schedule_B,schedule_B,9,4,3,offer,Zone2,response_button_image,905.000000000007,NaN,NaN,blueBox.png,1,1,0,0,NaN,NaN,NaN,NaN,NaN,trial_right,blueBox.png,blueBox.png,greenBox.png,al2_uncon.png,9,8,NaN,NaN,0.15,0.15,1,0,0,1,Stable,Stable,3.975,0.576,1.256,1.807,inexpert
42,1671283103971,17/12/2022 13:18:23,1671283103899,0,17/12/2022 13:18:23,109680,37,task-qrxs,repeat-7g8d#1->-repeat-38fk#1->-repeat-qjz7#1->-repeat-5t6i#1,26003425,BLIND,7678063,NaN,complete,NaN,NaN,computer,Desktop or Laptop,Mac OS 10.15.7,Safari 14.1.2,1920x1080,1920x1000,End of Day 1,SLS,90,A,Pass,End of Day 1,Pass,NaN,NaN,NaN,Pass,NaN,Pass,NaN,schedule_B,schedule_B,9,4,4,feedback_l,Zone7,timelimit_screen,2001,NaN,NaN,,NaN,0,1,0,NaN,NaN,1,NaN,NaN,trial_right,blueBox.png,blueBox.png,greenBox.png,al2_uncon.png,9,8,NaN,NaN,0.15,0.15,1,0,0,1,Stable,Stable,3.975,0.576,1.256,1.807,inexpert
43,1671283104105,17/12/2022 13:18:24,1671283104048,0,17/12/2022 13:18:24,109680,37,task-qrxs,repeat-7g8d#1->-repeat-38fk#1->-repeat-qjz7#1->-repeat-5t6i#1,26003425,BLIND,7678063,NaN,complete,NaN,NaN,computer,Desktop or Laptop,Mac OS 10.15.7,Safari 14.1.2,1920x1080,1920x1000,End of Day 1,SLS,90,A,Pass,End of Day 1,Pass,NaN,NaN,NaN,Pass,NaN,Pass,NaN,schedule_B,schedule_B,9,4,6,end,Zone1,timelimit_screen,149,NaN,NaN,,NaN,0,1,0,NaN,NaN,1,NaN,NaN,trial_right,blueBox.png,blueBox.png,greenBox.png,al2_uncon.png,9,8,NaN,NaN,0.15,0.15,1,0,0,1,Stable,Stable,3.975,0.576,1.256,1.807,inexpert
44,1671283104777,17/12/2022 13:18:24,1671283104714,0,17/12/2022 13:18:24,109680,37,task-qrxs,repeat-7g8d#1->-repeat-38fk#1->-repeat-qjz7#1->-repeat-5t6i#1,26003425,BLIND,7678063,NaN,complete,NaN,NaN,computer,Desktop or Laptop,Mac OS 10.15.7,Safari 14.1.2,1920x1080,1920x1000,End of Day 1,SLS,90,A,Pass,End of Day 1,Pass,NaN,NaN,NaN,Pass,NaN,Pass,NaN,schedule_B,schedule_B,10,5,1,Screen 1,Zone1,continue_button,650,NaN,NaN,,NaN,0,1,0,NaN,NaN,NaN,NaN,NaN,trial_left,greenBox.png,blueBox.png,greenBox.png,al2_uncon.png,10,9,NaN,NaN,0.15,0.15,0,0,1,1,Stable,Stable,3.798,1.055,1.559,2.042,inexpert
45,1671283105779,17/12/2022 13:18:25,1671283105698,0,17/12/2022 13:18:25,109680,37,task-qrxs,repeat-7g8d#1->-repeat-38fk#1->-repeat-qjz7#1->-repeat-5t6i#1,26003425,BLIND,7678063,NaN,complete,NaN,NaN,computer,Desktop or Laptop,Mac OS 10.15.7,Safari 14.1.2,1920x1080,1920x1000,End of Day 1,SLS,90,A,Pass,End of Day 1,Pass,NaN,NaN,NaN,Pass,NaN,Pass,NaN,schedule_B,schedule_B,10,5,2,individual,Zone4,timelimit_screen,999,NaN,NaN,,NaN,0,1,0,NaN,NaN,1,NaN,NaN,trial_left,greenBox.png,blueBox.png,greenBox.png,al2_uncon.png,10,9,NaN,NaN,0.15,0.15,0,0,1,1,Stable,Stable,3.798,1.055,1.559,2.042,inexpert
46,1671283106478,17/12/2022 13:18:26,1671283106411,0,17/12/2022 13:18:26,109680,37,task-qrxs,repeat-7g8d#1->-repeat-38fk#1->-repeat-qjz7#1->-repeat-5t6i#1,26003425,BLIND,7678063,NaN,complete,NaN,NaN,computer,Desktop or Laptop,Mac OS 10.15.7,Safari 14.1.2,1920x1080,1920x1000,End of Day 1,SLS,90,A,Pass,End of Day 1,Pass,NaN,NaN,NaN,Pass,NaN,Pass,NaN,schedule_B,schedule_B,10,5,3,offer,bluebox,response_button_image,701,NaN,NaN,greenBox.png,1,1,0,0,NaN,NaN,NaN,NaN,NaN,trial_left,greenBox.png,blueBox.png,greenBox.png,al2_uncon.png,10,9,NaN,NaN,0.15,0.15,0,0,1,1,Stable,Stable,3.798,1.055,1.559,2.042,inexpert
47,1671283108462,17/12/2022 13:18:28,1671283108399,0,17/12/2022 13:18:28,109680,37,task-qrxs,repeat-7g8d#1->-repeat-38fk#1->-repeat-qjz7#1->-repeat-5t6i#1,26003425,BLIND,7678063,NaN,complete,NaN,NaN,computer,Desktop or Laptop,Mac OS 10.15.7,Safari 14.1.2,1920x1080,1920x1000,End of Day 1,SLS,90,A,Pass,End of Day 1,Pass,NaN,NaN,NaN,Pass,NaN,Pass,NaN,schedule_B,schedule_B,10,5,5,feedback_r,Zone7,timelimit_screen,2000,NaN,NaN,,NaN,0,1,0,NaN,NaN,1,NaN,NaN,trial_left,greenBox.png,blueBox.png,greenBox.png,al2_uncon.png,10,9,NaN,NaN,0.15,0.15,0,0,1,1,Stable,Stable,3.798,1.055,1.559,2.042,inexpert
48,1671283108606,17/12/2022 13:18:28,1671283108550,0,17/12/2022 13:18:28,109680,37,task-qrxs,repeat-7g8d#1->-repeat-38fk#1->-repeat-qjz7#1->-repeat-5t6i#1,26003425,BLIND,7678063,NaN,complete,NaN,NaN,computer,Desktop or Laptop,Mac OS 10.15.7,Safari 14.1.2,1920x1080,1920x1000,End of Day 1,SLS,90,A,Pass,End of Day 1,Pass,NaN,NaN,NaN,Pass,NaN,Pass,NaN,schedule_B,schedule_B,10,5,6,end,Zone1,timelimit_screen,151,NaN,NaN,,NaN,0,1,0,NaN,NaN,1,NaN,NaN,trial_left,greenBox.png,blueBox.png,greenBox.png,al2_uncon.png,10,9,NaN,NaN,0.15,0.15,0,0,1,1,Stable,Stable,3.798,1.055,1.559,2.042,inexpert
49,1671283109297,17/12/2022 13:18:29,1671283109236,0,17/12/2022 13:18:29,109680,37,task-qrxs,repeat-7g8d#1->-repeat-38fk#1->-repeat-qjz7#1->-repeat-5t6i#1,26003425,BLIND,7678063,NaN,complete,NaN,NaN,computer,Desktop or Laptop,Mac OS 10.15.7,Safari 14.1.2,1920x1080,1920x1000,End of Day 1,SLS,90,A,Pass,End of Day 1,Pass,NaN,NaN,NaN,Pass,NaN,Pass,NaN,schedule_B,schedule_B,11,5,1,Screen 1,Zone1,continue_button,669,NaN,NaN,,NaN,0,1,0,NaN,NaN,NaN,NaN,NaN,trial_right,greenBox.png,greenBox.png,blueBox.png,al2_uncon.png,21,10,NaN,NaN,0.15,0.15,0,0,1,0,Stable,Stable,1.857,0.5,1.294,2.916,inexpert
50,1671283110293,17/12/2022 13:18:30,1671283110233,0,17/12/2022 13:18:30,109680,37,task-qrxs,repeat-7g8d#1->-repeat-38fk#1->-repeat-qjz7#1->-repeat-5t6i#1,26003425,BLIND,7678063,NaN,complete,NaN,NaN,computer,Desktop or Laptop,Mac OS 10.15.7,Safari 14.1.2,1920x1080,1920x1000,End of Day 1,SLS,90,A,Pass,End of Day 1,Pass,NaN,NaN,NaN,Pass,NaN,Pass,NaN,schedule_B,schedule_B,11,5,2,individual,Zone4,timelimit_screen,1000,NaN,NaN,,NaN,0,1,0,NaN,NaN,1,NaN,NaN,trial_right,greenBox.png,greenBox.png,blueBox.png,al2_uncon.png,21,10,NaN,NaN,0.15,0.15,0,0,1,0,Stable,Stable,1.857,0.5,1.294,2.916,inexpert
51,1671283110992,17/12/2022 13:18:30,1671283110789,0,17/12/2022 13:18:30,109680,37,task-qrxs,repeat-7g8d#1->-repeat-38fk#1->-repeat-qjz7#1->-repeat-5t6i#1,26003425,BLIND,7678063,NaN,complete,NaN,NaN,computer,Desktop or Laptop,Mac OS 10.15.7,Safari 14.1.2,1920x1080,1920x1000,End of Day 1,SLS,90,A,Pass,End of Day 1,Pass,NaN,NaN,NaN,Pass,NaN,Pass,NaN,schedule_B,schedule_B,11,5,3,offer,Zone2,response_button_image,546.000000000007,NaN,NaN,greenBox.png,1,1,0,0,NaN,NaN,NaN,NaN,NaN,trial_right,greenBox.png,greenBox.png,blueBox.png,al2_uncon.png,21,10,NaN,NaN,0.15,0.15,0,0,1,0,Stable,Stable,1.857,0.5,1.294,2.916,inexpert
52,1671283112841,17/12/2022 13:18:32,1671283112783,0,17/12/2022 13:18:32,109680,37,task-qrxs,repeat-7g8d#1->-repeat-38fk#1->-repeat-qjz7#1->-repeat-5t6i#1,26003425,BLIND,7678063,NaN,complete,NaN,NaN,computer,Desktop or Laptop,Mac OS 10.15.7,Safari 14.1.2,1920x1080,1920x1000,End of Day 1,SLS,90,A,Pass,End of Day 1,Pass,NaN,NaN,NaN,Pass,NaN,Pass,NaN,schedule_B,schedule_B,11,5,4,feedback_l,Zone7,timelimit_screen,2001,NaN,NaN,,NaN,0,1,0,NaN,NaN,1,NaN,NaN,trial_right,greenBox.png,greenBox.png,blueBox.png,al2_uncon.png,21,10,NaN,NaN,0.15,0.15,0,0,1,0,Stable,Stable,1.857,0.5,1.294,2.916,inexpert
53,1671283112991,17/12/2022 13:18:32,1671283112932,0,17/12/2022 13:18:32,109680,37,task-qrxs,repeat-7g8d#1->-repeat-38fk#1->-repeat-qjz7#1->-repeat-5t6i#1,26003425,BLIND,7678063,NaN,complete,NaN,NaN,computer,Desktop or Laptop,Mac OS 10.15.7,Safari 14.1.2,1920x1080,1920x1000,End of Day 1,SLS,90,A,Pass,End of Day 1,Pass,NaN,NaN,NaN,Pass,NaN,Pass,NaN,schedule_B,schedule_B,11,5,6,end,Zone1,timelimit_screen,149,NaN,NaN,,NaN,0,1,0,NaN,NaN,1,NaN,NaN,trial_right,greenBox.png,greenBox.png,blueBox.png,al2_uncon.png,21,10,NaN,NaN,0.15,0.15,0,0,1,0,Stable,Stable,1.857,0.5,1.294,2.916,inexpert
54,1671283114038,17/12/2022 13:18:34,1671283113983,0,17/12/2022 13:18:33,109680,37,task-qrxs,repeat-7g8d#1->-repeat-38fk#1->-repeat-qjz7#1->-repeat-5t6i#1,26003425,BLIND,7678063,NaN,complete,NaN,NaN,computer,Desktop or Laptop,Mac OS 10.15.7,Safari 14.1.2,1920x1080,1920x1000,End of Day 1,SLS,90,A,Pass,End of Day 1,Pass,NaN,NaN,NaN,Pass,NaN,Pass,NaN,schedule_B,schedule_B,12,6,1,Screen 1,Zone1,continue_button,1032,NaN,NaN,,NaN,0,1,0,NaN,NaN,NaN,NaN,NaN,trial_left,blueBox.png,greenBox.png,blueBox.png,al2_uncon.png,22,11,NaN,NaN,0.85,0.15,1,0,0,0,Stable,Stable,1.126,1.849,1.483,1.689,inexpert
55,1671283115031,17/12/2022 13:18:35,1671283114967,0,17/12/2022 13:18:34,109680,37,task-qrxs,repeat-7g8d#1->-repeat-38fk#1->-repeat-qjz7#1->-repeat-5t6i#1,26003425,BLIND,7678063,NaN,complete,NaN,NaN,computer,Desktop or Laptop,Mac OS 10.15.7,Safari 14.1.2,1920x1080,1920x1000,End of Day 1,SLS,90,A,Pass,End of Day 1,Pass,NaN,NaN,NaN,Pass,NaN,Pass,NaN,schedule_B,schedule_B,12,6,2,individual,Zone4,timelimit_screen,1000,NaN,NaN,,NaN,0,1,0,NaN,NaN,1,NaN,NaN,trial_left,blueBox.png,greenBox.png,blueBox.png,al2_uncon.png,22,11,NaN,NaN,0.85,0.15,1,0,0,0,Stable,Stable,1.126,1.849,1.483,1.689,inexpert
56,1671283115838,17/12/2022 13:18:35,1671283115783,0,17/12/2022 13:18:35,109680,37,task-qrxs,repeat-7g8d#1->-repeat-38fk#1->-repeat-qjz7#1->-repeat-5t6i#1,26003425,BLIND,7678063,NaN,complete,NaN,NaN,computer,Desktop or Laptop,Mac OS 10.15.7,Safari 14.1.2,1920x1080,1920x1000,End of Day 1,SLS,90,A,Pass,End of Day 1,Pass,NaN,NaN,NaN,Pass,NaN,Pass,NaN,schedule_B,schedule_B,12,6,3,offer,bluebox,response_button_image,806.000000000007,NaN,NaN,blueBox.png,1,1,0,0,NaN,NaN,NaN,NaN,NaN,trial_left,blueBox.png,greenBox.png,blueBox.png,al2_uncon.png,22,11,NaN,NaN,0.85,0.15,1,0,0,0,Stable,Stable,1.126,1.849,1.483,1.689,inexpert
57,1671283117823,17/12/2022 13:18:37,1671283117765,0,17/12/2022 13:18:37,109680,37,task-qrxs,repeat-7g8d#1->-repeat-38fk#1->-repeat-qjz7#1->-repeat-5t6i#1,26003425,BLIND,7678063,NaN,complete,NaN,NaN,computer,Desktop or Laptop,Mac OS 10.15.7,Safari 14.1.2,1920x1080,1920x1000,End of Day 1,SLS,90,A,Pass,End of Day 1,Pass,NaN,NaN,NaN,Pass,NaN,Pass,NaN,schedule_B,schedule_B,12,6,5,feedback_r,Zone7,timelimit_screen,2000,NaN,NaN,,NaN,0,1,0,NaN,NaN,1,NaN,NaN,trial_left,blueBox.png,greenBox.png,blueBox.png,al2_uncon.png,22,11,NaN,NaN,0.85,0.15,1,0,0,0,Stable,Stable,1.126,1.849,1.483,1.689,inexpert
58,1671283117977,17/12/2022 13:18:37,1671283117915,0,17/12/2022 13:18:37,109680,37,task-qrxs,repeat-7g8d#1->-repeat-38fk#1->-repeat-qjz7#1->-repeat-5t6i#1,26003425,BLIND,7678063,NaN,complete,NaN,NaN,computer,Desktop or Laptop,Mac OS 10.15.7,Safari 14.1.2,1920x1080,1920x1000,End of Day 1,SLS,90,A,Pass,End of Day 1,Pass,NaN,NaN,NaN,Pass,NaN,Pass,NaN,schedule_B,schedule_B,12,6,6,end,Zone1,timelimit_screen,150,NaN,NaN,,NaN,0,1,0,NaN,NaN,1,NaN,NaN,trial_left,blueBox.png,greenBox.png,blueBox.png,al2_uncon.png,22,11,NaN,NaN,0.85,0.15,1,0,0,0,Stable,Stable,1.126,1.849,1.483,1.689,inexpert
59,1671283118629,17/12/2022 13:18:38,1671283118563,0,17/12/2022 13:18:38,109680,37,task-qrxs,repeat-7g8d#1->-repeat-38fk#1->-repeat-qjz7#1->-repeat-5t6i#1,26003425,BLIND,7678063,NaN,complete,NaN,NaN,computer,Desktop or Laptop,Mac OS 10.15.7,Safari 14.1.2,1920x1080,1920x1000,End of Day 1,SLS,90,A,Pass,End of Day 1,Pass,NaN,NaN,NaN,Pass,NaN,Pass,NaN,schedule_B,schedule_B,13,7,1,Screen 1,Zone1,continue_button,630,NaN,NaN,,NaN,0,1,0,NaN,NaN,NaN,NaN,NaN,trial_left,blueBox.png,greenBox.png,blueBox.png,al2_uncon.png,23,12,NaN,NaN,0.85,0.15,1,0,0,0,Stable,Stable,2.361,0.992,0.5,1.975,inexpert
60,1671283119609,17/12/2022 13:18:39,1671283119550,0,17/12/2022 13:18:39,109680,37,task-qrxs,repeat-7g8d#1->-repeat-38fk#1->-repeat-qjz7#1->-repeat-5t6i#1,26003425,BLIND,7678063,NaN,complete,NaN,NaN,computer,Desktop or Laptop,Mac OS 10.15.7,Safari 14.1.2,1920x1080,1920x1000,End of Day 1,SLS,90,A,Pass,End of Day 1,Pass,NaN,NaN,NaN,Pass,NaN,Pass,NaN,schedule_B,schedule_B,13,7,2,individual,Zone4,timelimit_screen,1000,NaN,NaN,,NaN,0,1,0,NaN,NaN,1,NaN,NaN,trial_left,blueBox.png,greenBox.png,blueBox.png,al2_uncon.png,23,12,NaN,NaN,0.85,0.15,1,0,0,0,Stable,Stable,2.361,0.992,0.5,1.975,inexpert
61,1671283120470,17/12/2022 13:18:40,1671283120408,0,17/12/2022 13:18:40,109680,37,task-qrxs,repeat-7g8d#1->-repeat-38fk#1->-repeat-qjz7#1->-repeat-5t6i#1,26003425,BLIND,7678063,NaN,complete,NaN,NaN,computer,Desktop or Laptop,Mac OS 10.15.7,Safari 14.1.2,1920x1080,1920x1000,End of Day 1,SLS,90,A,Pass,End of Day 1,Pass,NaN,NaN,NaN,Pass,NaN,Pass,NaN,schedule_B,schedule_B,13,7,3,offer,bluebox,response_button_image,846.000000000007,NaN,NaN,blueBox.png,1,1,0,0,NaN,NaN,NaN,NaN,NaN,trial_left,blueBox.png,greenBox.png,blueBox.png,al2_uncon.png,23,12,NaN,NaN,0.85,0.15,1,0,0,0,Stable,Stable,2.361,0.992,0.5,1.975,inexpert
62,1671283122454,17/12/2022 13:18:42,1671283122400,0,17/12/2022 13:18:42,109680,37,task-qrxs,repeat-7g8d#1->-repeat-38fk#1->-repeat-qjz7#1->-repeat-5t6i#1,26003425,BLIND,7678063,NaN,complete,NaN,NaN,computer,Desktop or Laptop,Mac OS 10.15.7,Safari 14.1.2,1920x1080,1920x1000,End of Day 1,SLS,90,A,Pass,End of Day 1,Pass,NaN,NaN,NaN,Pass,NaN,Pass,NaN,schedule_B,schedule_B,13,7,5,feedback_r,Zone7,timelimit_screen,2001,NaN,NaN,,NaN,0,1,0,NaN,NaN,1,NaN,NaN,trial_left,blueBox.png,greenBox.png,blueBox.png,al2_uncon.png,23,12,NaN,NaN,0.85,0.15,1,0,0,0,Stable,Stable,2.361,0.992,0.5,1.975,inexpert
63,1671283122606,17/12/2022 13:18:42,1671283122549,0,17/12/2022 13:18:42,109680,37,task-qrxs,repeat-7g8d#1->-repeat-38fk#1->-repeat-qjz7#1->-repeat-5t6i#1,26003425,BLIND,7678063,NaN,complete,NaN,NaN,computer,Desktop or Laptop,Mac OS 10.15.7,Safari 14.1.2,1920x1080,1920x1000,End of Day 1,SLS,90,A,Pass,End of Day 1,Pass,NaN,NaN,NaN,Pass,NaN,Pass,NaN,schedule_B,schedule_B,13,7,6,end,Zone1,timelimit_screen,148,NaN,NaN,,NaN,0,1,0,NaN,NaN,1,NaN,NaN,trial_left,blueBox.png,greenBox.png,blueBox.png,al2_uncon.png,23,12,NaN,NaN,0.85,0.15,1,0,0,0,Stable,Stable,2.361,0.992,0.5,1.975,inexpert
64,1671283123381,17/12/2022 13:18:43,1671283123321,0,17/12/2022 13:18:43,109680,37,task-qrxs,repeat-7g8d#1->-repeat-38fk#1->-repeat-qjz7#1->-repeat-5t6i#1,26003425,BLIND,7678063,NaN,complete,NaN,NaN,computer,Desktop or Laptop,Mac OS 10.15.7,Safari 14.1.2,1920x1080,1920x1000,End of Day 1,SLS,90,A,Pass,End of Day 1,Pass,NaN,NaN,NaN,Pass,NaN,Pass,NaN,schedule_B,schedule_B,14,6,1,Screen 1,Zone1,continue_button,752,NaN,NaN,,NaN,0,1,0,NaN,NaN,NaN,NaN,NaN,trial_right,blueBox.png,blueBox.png,greenBox.png,al2_uncon.png,24,13,NaN,NaN,0.85,0.15,1,0,0,1,Stable,Stable,1.05,1.95,1.319,1.487,inexpert
65,1671283124380,17/12/2022 13:18:44,1671283124317,0,17/12/2022 13:18:44,109680,37,task-qrxs,repeat-7g8d#1->-repeat-38fk#1->-repeat-qjz7#1->-repeat-5t6i#1,26003425,BLIND,7678063,NaN,complete,NaN,NaN,computer,Desktop or Laptop,Mac OS 10.15.7,Safari 14.1.2,1920x1080,1920x1000,End of Day 1,SLS,90,A,Pass,End of Day 1,Pass,NaN,NaN,NaN,Pass,NaN,Pass,NaN,schedule_B,schedule_B,14,6,2,individual,Zone4,timelimit_screen,1001,NaN,NaN,,NaN,0,1,0,NaN,NaN,1,NaN,NaN,trial_right,blueBox.png,blueBox.png,greenBox.png,al2_uncon.png,24,13,NaN,NaN,0.85,0.15,1,0,0,1,Stable,Stable,1.05,1.95,1.319,1.487,inexpert
66,1671283125186,17/12/2022 13:18:45,1671283125132,0,17/12/2022 13:18:45,109680,37,task-qrxs,repeat-7g8d#1->-repeat-38fk#1->-repeat-qjz7#1->-repeat-5t6i#1,26003425,BLIND,7678063,NaN,complete,NaN,NaN,computer,Desktop or Laptop,Mac OS 10.15.7,Safari 14.1.2,1920x1080,1920x1000,End of Day 1,SLS,90,A,Pass,End of Day 1,Pass,NaN,NaN,NaN,Pass,NaN,Pass,NaN,schedule_B,schedule_B,14,6,3,offer,Zone2,response_button_image,804.999999999985,NaN,NaN,blueBox.png,1,1,0,0,NaN,NaN,NaN,NaN,NaN,trial_right,blueBox.png,blueBox.png,greenBox.png,al2_uncon.png,24,13,NaN,NaN,0.85,0.15,1,0,0,1,Stable,Stable,1.05,1.95,1.319,1.487,inexpert
67,1671283127176,17/12/2022 13:18:47,1671283127117,0,17/12/2022 13:18:47,109680,37,task-qrxs,repeat-7g8d#1->-repeat-38fk#1->-repeat-qjz7#1->-repeat-5t6i#1,26003425,BLIND,7678063,NaN,complete,NaN,NaN,computer,Desktop or Laptop,Mac OS 10.15.7,Safari 14.1.2,1920x1080,1920x1000,End of Day 1,SLS,90,A,Pass,End of Day 1,Pass,NaN,NaN,NaN,Pass,NaN,Pass,NaN,schedule_B,schedule_B,14,6,4,feedback_l,Zone7,timelimit_screen,2001,NaN,NaN,,NaN,0,1,0,NaN,NaN,1,NaN,NaN,trial_right,blueBox.png,blueBox.png,greenBox.png,al2_uncon.png,24,13,NaN,NaN,0.85,0.15,1,0,0,1,Stable,Stable,1.05,1.95,1.319,1.487,inexpert
68,1671283127317,17/12/2022 13:18:47,1671283127267,0,17/12/2022 13:18:47,109680,37,task-qrxs,repeat-7g8d#1->-repeat-38fk#1->-repeat-qjz7#1->-repeat-5t6i#1,26003425,BLIND,7678063,NaN,complete,NaN,NaN,computer,Desktop or Laptop,Mac OS 10.15.7,Safari 14.1.2,1920x1080,1920x1000,End of Day 1,SLS,90,A,Pass,End of Day 1,Pass,NaN,NaN,NaN,Pass,NaN,Pass,NaN,schedule_B,schedule_B,14,6,6,end,Zone1,timelimit_screen,150,NaN,NaN,,NaN,0,1,0,NaN,NaN,1,NaN,NaN,trial_right,blueBox.png,blueBox.png,greenBox.png,al2_uncon.png,24,13,NaN,NaN,0.85,0.15,1,0,0,1,Stable,Stable,1.05,1.95,1.319,1.487,inexpert
69,1671283128369,17/12/2022 13:18:48,1671283128305,0,17/12/2022 13:18:48,109680,37,task-qrxs,repeat-7g8d#1->-repeat-38fk#1->-repeat-qjz7#1->-repeat-5t6i#1,26003425,BLIND,7678063,NaN,complete,NaN,NaN,computer,Desktop or Laptop,Mac OS 10.15.7,Safari 14.1.2,1920x1080,1920x1000,End of Day 1,SLS,90,A,Pass,End of Day 1,Pass,NaN,NaN,NaN,Pass,NaN,Pass,NaN,schedule_B,schedule_B,15,7,1,Screen 1,Zone1,continue_button,1020,NaN,NaN,,NaN,0,1,0,NaN,NaN,NaN,NaN,NaN,trial_right,blueBox.png,blueBox.png,greenBox.png,al2_uncon.png,25,14,NaN,NaN,0.85,0.15,1,0,0,1,Stable,Stable,3.395,0.84,0.803,1.252,inexpert
70,1671283129365,17/12/2022 13:18:49,1671283129300,0,17/12/2022 13:18:49,109680,37,task-qrxs,repeat-7g8d#1->-repeat-38fk#1->-repeat-qjz7#1->-repeat-5t6i#1,26003425,BLIND,7678063,NaN,complete,NaN,NaN,computer,Desktop or Laptop,Mac OS 10.15.7,Safari 14.1.2,1920x1080,1920x1000,End of Day 1,SLS,90,A,Pass,End of Day 1,Pass,NaN,NaN,NaN,Pass,NaN,Pass,NaN,schedule_B,schedule_B,15,7,2,individual,Zone4,timelimit_screen,999,NaN,NaN,,NaN,0,1,0,NaN,NaN,1,NaN,NaN,trial_right,blueBox.png,blueBox.png,greenBox.png,al2_uncon.png,25,14,NaN,NaN,0.85,0.15,1,0,0,1,Stable,Stable,3.395,0.84,0.803,1.252,inexpert
71,1671283130401,17/12/2022 13:18:50,1671283130341,0,17/12/2022 13:18:50,109680,37,task-qrxs,repeat-7g8d#1->-repeat-38fk#1->-repeat-qjz7#1->-repeat-5t6i#1,26003425,BLIND,7678063,NaN,complete,NaN,NaN,computer,Desktop or Laptop,Mac OS 10.15.7,Safari 14.1.2,1920x1080,1920x1000,End of Day 1,SLS,90,A,Pass,End of Day 1,Pass,NaN,NaN,NaN,Pass,NaN,Pass,NaN,schedule_B,schedule_B,15,7,3,offer,Zone2,response_button_image,1030.99999999999,NaN,NaN,blueBox.png,1,1,0,0,NaN,NaN,NaN,NaN,NaN,trial_right,blueBox.png,blueBox.png,greenBox.png,al2_uncon.png,25,14,NaN,NaN,0.85,0.15,1,0,0,1,Stable,Stable,3.395,0.84,0.803,1.252,inexpert
72,1671283132387,17/12/2022 13:18:52,1671283132333,0,17/12/2022 13:18:52,109680,37,task-qrxs,repeat-7g8d#1->-repeat-38fk#1->-repeat-qjz7#1->-repeat-5t6i#1,26003425,BLIND,7678063,NaN,complete,NaN,NaN,computer,Desktop or Laptop,Mac OS 10.15.7,Safari 14.1.2,1920x1080,1920x1000,End of Day 1,SLS,90,A,Pass,End of Day 1,Pass,NaN,NaN,NaN,Pass,NaN,Pass,NaN,schedule_B,schedule_B,15,7,4,feedback_l,Zone7,timelimit_screen,2000,NaN,NaN,,NaN,0,1,0,NaN,NaN,1,NaN,NaN,trial_right,blueBox.png,blueBox.png,greenBox.png,al2_uncon.png,25,14,NaN,NaN,0.85,0.15,1,0,0,1,Stable,Stable,3.395,0.84,0.803,1.252,inexpert
73,1671283132540,17/12/2022 13:18:52,1671283132484,0,17/12/2022 13:18:52,109680,37,task-qrxs,repeat-7g8d#1->-repeat-38fk#1->-repeat-qjz7#1->-repeat-5t6i#1,26003425,BLIND,7678063,NaN,complete,NaN,NaN,computer,Desktop or Laptop,Mac OS 10.15.7,Safari 14.1.2,1920x1080,1920x1000,End of Day 1,SLS,90,A,Pass,End of Day 1,Pass,NaN,NaN,NaN,Pass,NaN,Pass,NaN,schedule_B,schedule_B,15,7,6,end,Zone1,timelimit_screen,151,NaN,NaN,,NaN,0,1,0,NaN,NaN,1,NaN,NaN,trial_right,blueBox.png,blueBox.png,greenBox.png,al2_uncon.png,25,14,NaN,NaN,0.85,0.15,1,0,0,1,Stable,Stable,3.395,0.84,0.803,1.252,inexpert
74,1671283133553,17/12/2022 13:18:53,1671283133491,0,17/12/2022 13:18:53,109680,37,task-qrxs,repeat-7g8d#1->-repeat-38fk#1->-repeat-qjz7#1->-repeat-5t6i#1,26003425,BLIND,7678063,NaN,complete,NaN,NaN,computer,Desktop or Laptop,Mac OS 10.15.7,Safari 14.1.2,1920x1080,1920x1000,End of Day 1,SLS,90,A,Pass,End of Day 1,Pass,NaN,NaN,NaN,Pass,NaN,Pass,NaN,schedule_B,schedule_B,16,8,1,Screen 1,Zone1,continue_button,990,NaN,NaN,,NaN,0,1,0,NaN,NaN,NaN,NaN,NaN,trial_left,blueBox.png,blueBox.png,greenBox.png,al2_uncon.png,26,15,NaN,NaN,0.85,0.15,1,1,1,1,Stable,Stable,2.689,1.067,1.697,2.731,inexpert
75,1671283134533,17/12/2022 13:18:54,1671283134482,0,17/12/2022 13:18:54,109680,37,task-qrxs,repeat-7g8d#1->-repeat-38fk#1->-repeat-qjz7#1->-repeat-5t6i#1,26003425,BLIND,7678063,NaN,complete,NaN,NaN,computer,Desktop or Laptop,Mac OS 10.15.7,Safari 14.1.2,1920x1080,1920x1000,End of Day 1,SLS,90,A,Pass,End of Day 1,Pass,NaN,NaN,NaN,Pass,NaN,Pass,NaN,schedule_B,schedule_B,16,8,2,individual,Zone4,timelimit_screen,999,NaN,NaN,,NaN,0,1,0,NaN,NaN,1,NaN,NaN,trial_left,blueBox.png,blueBox.png,greenBox.png,al2_uncon.png,26,15,NaN,NaN,0.85,0.15,1,1,1,1,Stable,Stable,2.689,1.067,1.697,2.731,inexpert
76,1671283135283,17/12/2022 13:18:55,1671283135225,0,17/12/2022 13:18:55,109680,37,task-qrxs,repeat-7g8d#1->-repeat-38fk#1->-repeat-qjz7#1->-repeat-5t6i#1,26003425,BLIND,7678063,NaN,complete,NaN,NaN,computer,Desktop or Laptop,Mac OS 10.15.7,Safari 14.1.2,1920x1080,1920x1000,End of Day 1,SLS,90,A,Pass,End of Day 1,Pass,NaN,NaN,NaN,Pass,NaN,Pass,NaN,schedule_B,schedule_B,16,8,3,offer,bluebox,response_button_image,732,NaN,NaN,greenBox.png,1,0,1,0,NaN,NaN,NaN,NaN,NaN,trial_left,blueBox.png,blueBox.png,greenBox.png,al2_uncon.png,26,15,NaN,NaN,0.85,0.15,1,1,1,1,Stable,Stable,2.689,1.067,1.697,2.731,inexpert
77,1671283137266,17/12/2022 13:18:57,1671283137216,0,17/12/2022 13:18:57,109680,37,task-qrxs,repeat-7g8d#1->-repeat-38fk#1->-repeat-qjz7#1->-repeat-5t6i#1,26003425,BLIND,7678063,NaN,complete,NaN,NaN,computer,Desktop or Laptop,Mac OS 10.15.7,Safari 14.1.2,1920x1080,1920x1000,End of Day 1,SLS,90,A,Pass,End of Day 1,Pass,NaN,NaN,NaN,Pass,NaN,Pass,NaN,schedule_B,schedule_B,16,8,5,feedback_r,Zone7,timelimit_screen,1999,NaN,NaN,,NaN,0,1,0,NaN,NaN,1,NaN,NaN,trial_left,blueBox.png,blueBox.png,greenBox.png,al2_uncon.png,26,15,NaN,NaN,0.85,0.15,1,1,1,1,Stable,Stable,2.689,1.067,1.697,2.731,inexpert
78,1671283137422,17/12/2022 13:18:57,1671283137366,0,17/12/2022 13:18:57,109680,37,task-qrxs,repeat-7g8d#1->-repeat-38fk#1->-repeat-qjz7#1->-repeat-5t6i#1,26003425,BLIND,7678063,NaN,complete,NaN,NaN,computer,Desktop or Laptop,Mac OS 10.15.7,Safari 14.1.2,1920x1080,1920x1000,End of Day 1,SLS,90,A,Pass,End of Day 1,Pass,NaN,NaN,NaN,Pass,NaN,Pass,NaN,schedule_B,schedule_B,16,8,6,end,Zone1,timelimit_screen,150,NaN,NaN,,NaN,0,1,0,NaN,NaN,1,NaN,NaN,trial_left,blueBox.png,blueBox.png,greenBox.png,al2_uncon.png,26,15,NaN,NaN,0.85,0.15,1,1,1,1,Stable,Stable,2.689,1.067,1.697,2.731,inexpert
79,1671283138141,17/12/2022 13:18:58,1671283138082,0,17/12/2022 13:18:58,109680,37,task-qrxs,repeat-7g8d#1->-repeat-38fk#1->-repeat-qjz7#1->-repeat-5t6i#1,26003425,BLIND,7678063,NaN,complete,NaN,NaN,computer,Desktop or Laptop,Mac OS 10.15.7,Safari 14.1.2,1920x1080,1920x1000,End of Day 1,SLS,90,A,Pass,End of Day 1,Pass,NaN,NaN,NaN,Pass,NaN,Pass,NaN,schedule_B,schedule_B,17,9,1,Screen 1,Zone1,continue_button,699,NaN,NaN,,NaN,0,1,0,NaN,NaN,NaN,NaN,NaN,trial_left,greenBox.png,greenBox.png,blueBox.png,al2_uncon.png,27,16,NaN,NaN,0.15,0.15,0,1,0,0,Stable,Stable,1.378,0.689,0.878,2.076,inexpert
80,1671283139131,17/12/2022 13:18:59,1671283139066,0,17/12/2022 13:18:59,109680,37,task-qrxs,repeat-7g8d#1->-repeat-38fk#1->-repeat-qjz7#1->-repeat-5t6i#1,26003425,BLIND,7678063,NaN,complete,NaN,NaN,computer,Desktop or Laptop,Mac OS 10.15.7,Safari 14.1.2,1920x1080,1920x1000,End of Day 1,SLS,90,A,Pass,End of Day 1,Pass,NaN,NaN,NaN,Pass,NaN,Pass,NaN,schedule_B,schedule_B,17,9,2,individual,Zone4,timelimit_screen,999,NaN,NaN,,NaN,0,1,0,NaN,NaN,1,NaN,NaN,trial_left,greenBox.png,greenBox.png,blueBox.png,al2_uncon.png,27,16,NaN,NaN,0.15,0.15,0,1,0,0,Stable,Stable,1.378,0.689,0.878,2.076,inexpert
81,1671283139922,17/12/2022 13:18:59,1671283139870,0,17/12/2022 13:18:59,109680,37,task-qrxs,repeat-7g8d#1->-repeat-38fk#1->-repeat-qjz7#1->-repeat-5t6i#1,26003425,BLIND,7678063,NaN,complete,NaN,NaN,computer,Desktop or Laptop,Mac OS 10.15.7,Safari 14.1.2,1920x1080,1920x1000,End of Day 1,SLS,90,A,Pass,End of Day 1,Pass,NaN,NaN,NaN,Pass,NaN,Pass,NaN,schedule_B,schedule_B,17,9,3,offer,Zone2,response_button_image,794.999999999985,NaN,NaN,greenBox.png,1,1,0,0,NaN,NaN,NaN,NaN,NaN,trial_left,greenBox.png,greenBox.png,blueBox.png,al2_uncon.png,27,16,NaN,NaN,0.15,0.15,0,1,0,0,Stable,Stable,1.378,0.689,0.878,2.076,inexpert
82,1671283141917,17/12/2022 13:19:01,1671283141866,0,17/12/2022 13:19:01,109680,37,task-qrxs,repeat-7g8d#1->-repeat-38fk#1->-repeat-qjz7#1->-repeat-5t6i#1,26003425,BLIND,7678063,NaN,complete,NaN,NaN,computer,Desktop or Laptop,Mac OS 10.15.7,Safari 14.1.2,1920x1080,1920x1000,End of Day 1,SLS,90,A,Pass,End of Day 1,Pass,NaN,NaN,NaN,Pass,NaN,Pass,NaN,schedule_B,schedule_B,17,9,4,feedback_l,Zone7,timelimit_screen,1998,NaN,NaN,,NaN,0,1,0,NaN,NaN,1,NaN,NaN,trial_left,greenBox.png,greenBox.png,blueBox.png,al2_uncon.png,27,16,NaN,NaN,0.15,0.15,0,1,0,0,Stable,Stable,1.378,0.689,0.878,2.076,inexpert
83,1671283142097,17/12/2022 13:19:02,1671283142017,0,17/12/2022 13:19:02,109680,37,task-qrxs,repeat-7g8d#1->-repeat-38fk#1->-repeat-qjz7#1->-repeat-5t6i#1,26003425,BLIND,7678063,NaN,complete,NaN,NaN,computer,Desktop or Laptop,Mac OS 10.15.7,Safari 14.1.2,1920x1080,1920x1000,End of Day 1,SLS,90,A,Pass,End of Day 1,Pass,NaN,NaN,NaN,Pass,NaN,Pass,NaN,schedule_B,schedule_B,17,9,6,end,Zone1,timelimit_screen,151,NaN,NaN,,NaN,0,1,0,NaN,NaN,1,NaN,NaN,trial_left,greenBox.png,greenBox.png,blueBox.png,al2_uncon.png,27,16,NaN,NaN,0.15,0.15,0,1,0,0,Stable,Stable,1.378,0.689,0.878,2.076,inexpert
84,1671283142836,17/12/2022 13:19:02,1671283142783,0,17/12/2022 13:19:02,109680,37,task-qrxs,repeat-7g8d#1->-repeat-38fk#1->-repeat-qjz7#1->-repeat-5t6i#1,26003425,BLIND,7678063,NaN,complete,NaN,NaN,computer,Desktop or Laptop,Mac OS 10.15.7,Safari 14.1.2,1920x1080,1920x1000,End of Day 1,SLS,90,A,Pass,End of Day 1,Pass,NaN,NaN,NaN,Pass,NaN,Pass,NaN,schedule_B,schedule_B,18,8,1,Screen 1,Zone1,continue_button,747,NaN,NaN,,NaN,0,1,0,NaN,NaN,NaN,NaN,NaN,trial_right,greenBox.png,blueBox.png,greenBox.png,al2_uncon.png,28,17,NaN,NaN,0.15,0.15,0,1,0,1,Stable,Stable,2.714,0.739,1.975,1.134,inexpert
85,1671283143833,17/12/2022 13:19:03,1671283143767,0,17/12/2022 13:19:03,109680,37,task-qrxs,repeat-7g8d#1->-repeat-38fk#1->-repeat-qjz7#1->-repeat-5t6i#1,26003425,BLIND,7678063,NaN,complete,NaN,NaN,computer,Desktop or Laptop,Mac OS 10.15.7,Safari 14.1.2,1920x1080,1920x1000,End of Day 1,SLS,90,A,Pass,End of Day 1,Pass,NaN,NaN,NaN,Pass,NaN,Pass,NaN,schedule_B,schedule_B,18,8,2,individual,Zone4,timelimit_screen,1001,NaN,NaN,,NaN,0,1,0,NaN,NaN,1,NaN,NaN,trial_right,greenBox.png,blueBox.png,greenBox.png,al2_uncon.png,28,17,NaN,NaN,0.15,0.15,0,1,0,1,Stable,Stable,2.714,0.739,1.975,1.134,inexpert
86,1671283144615,17/12/2022 13:19:04,1671283144562,0,17/12/2022 13:19:04,109680,37,task-qrxs,repeat-7g8d#1->-repeat-38fk#1->-repeat-qjz7#1->-repeat-5t6i#1,26003425,BLIND,7678063,NaN,complete,NaN,NaN,computer,Desktop or Laptop,Mac OS 10.15.7,Safari 14.1.2,1920x1080,1920x1000,End of Day 1,SLS,90,A,Pass,End of Day 1,Pass,NaN,NaN,NaN,Pass,NaN,Pass,NaN,schedule_B,schedule_B,18,8,3,offer,Zone3,response_button_image,783,NaN,NaN,greenBox.png,1,1,0,0,NaN,NaN,NaN,NaN,NaN,trial_right,greenBox.png,blueBox.png,greenBox.png,al2_uncon.png,28,17,NaN,NaN,0.15,0.15,0,1,0,1,Stable,Stable,2.714,0.739,1.975,1.134,inexpert
87,1671283146607,17/12/2022 13:19:06,1671283146549,0,17/12/2022 13:19:06,109680,37,task-qrxs,repeat-7g8d#1->-repeat-38fk#1->-repeat-qjz7#1->-repeat-5t6i#1,26003425,BLIND,7678063,NaN,complete,NaN,NaN,computer,Desktop or Laptop,Mac OS 10.15.7,Safari 14.1.2,1920x1080,1920x1000,End of Day 1,SLS,90,A,Pass,End of Day 1,Pass,NaN,NaN,NaN,Pass,NaN,Pass,NaN,schedule_B,schedule_B,18,8,5,feedback_r,Zone7,timelimit_screen,2000,NaN,NaN,,NaN,0,1,0,NaN,NaN,1,NaN,NaN,trial_right,greenBox.png,blueBox.png,greenBox.png,al2_uncon.png,28,17,NaN,NaN,0.15,0.15,0,1,0,1,Stable,Stable,2.714,0.739,1.975,1.134,inexpert
88,1671283146758,17/12/2022 13:19:06,1671283146701,0,17/12/2022 13:19:06,109680,37,task-qrxs,repeat-7g8d#1->-repeat-38fk#1->-repeat-qjz7#1->-repeat-5t6i#1,26003425,BLIND,7678063,NaN,complete,NaN,NaN,computer,Desktop or Laptop,Mac OS 10.15.7,Safari 14.1.2,1920x1080,1920x1000,End of Day 1,SLS,90,A,Pass,End of Day 1,Pass,NaN,NaN,NaN,Pass,NaN,Pass,NaN,schedule_B,schedule_B,18,8,6,end,Zone1,timelimit_screen,152,NaN,NaN,,NaN,0,1,0,NaN,NaN,1,NaN,NaN,trial_right,greenBox.png,blueBox.png,greenBox.png,al2_uncon.png,28,17,NaN,NaN,0.15,0.15,0,1,0,1,Stable,Stable,2.714,0.739,1.975,1.134,inexpert
89,1671283147431,17/12/2022 13:19:07,1671283147385,0,17/12/2022 13:19:07,109680,37,task-qrxs,repeat-7g8d#1->-repeat-38fk#1->-repeat-qjz7#1->-repeat-5t6i#1,26003425,BLIND,7678063,NaN,complete,NaN,NaN,computer,Desktop or Laptop,Mac OS 10.15.7,Safari 14.1.2,1920x1080,1920x1000,End of Day 1,SLS,90,A,Pass,End of Day 1,Pass,NaN,NaN,NaN,Pass,NaN,Pass,NaN,schedule_B,schedule_B,19,9,1,Screen 1,Zone1,continue_button,665,NaN,NaN,,NaN,0,1,0,NaN,NaN,NaN,NaN,NaN,trial_right,greenBox.png,greenBox.png,blueBox.png,al2_uncon.png,29,18,NaN,NaN,0.15,0.15,0,0,1,0,Stable,Stable,3.874,0.676,1.496,1.639,inexpert
90,1671283148469,17/12/2022 13:19:08,1671283148384,0,17/12/2022 13:19:08,109680,37,task-qrxs,repeat-7g8d#1->-repeat-38fk#1->-repeat-qjz7#1->-repeat-5t6i#1,26003425,BLIND,7678063,NaN,complete,NaN,NaN,computer,Desktop or Laptop,Mac OS 10.15.7,Safari 14.1.2,1920x1080,1920x1000,End of Day 1,SLS,90,A,Pass,End of Day 1,Pass,NaN,NaN,NaN,Pass,NaN,Pass,NaN,schedule_B,schedule_B,19,9,2,individual,Zone4,timelimit_screen,1001,NaN,NaN,,NaN,0,1,0,NaN,NaN,1,NaN,NaN,trial_right,greenBox.png,greenBox.png,blueBox.png,al2_uncon.png,29,18,NaN,NaN,0.15,0.15,0,0,1,0,Stable,Stable,3.874,0.676,1.496,1.639,inexpert
91,1671283149225,17/12/2022 13:19:09,1671283149175,0,17/12/2022 13:19:09,109680,37,task-qrxs,repeat-7g8d#1->-repeat-38fk#1->-repeat-qjz7#1->-repeat-5t6i#1,26003425,BLIND,7678063,NaN,complete,NaN,NaN,computer,Desktop or Laptop,Mac OS 10.15.7,Safari 14.1.2,1920x1080,1920x1000,End of Day 1,SLS,90,A,Pass,End of Day 1,Pass,NaN,NaN,NaN,Pass,NaN,Pass,NaN,schedule_B,schedule_B,19,9,3,offer,Zone3,response_button_image,781,NaN,NaN,blueBox.png,1,0,1,0,NaN,NaN,NaN,NaN,NaN,trial_right,greenBox.png,greenBox.png,blueBox.png,al2_uncon.png,29,18,NaN,NaN,0.15,0.15,0,0,1,0,Stable,Stable,3.874,0.676,1.496,1.639,inexpert
92,1671283151212,17/12/2022 13:19:11,1671283151166,0,17/12/2022 13:19:11,109680,37,task-qrxs,repeat-7g8d#1->-repeat-38fk#1->-repeat-qjz7#1->-repeat-5t6i#1,26003425,BLIND,7678063,NaN,complete,NaN,NaN,computer,Desktop or Laptop,Mac OS 10.15.7,Safari 14.1.2,1920x1080,1920x1000,End of Day 1,SLS,90,A,Pass,End of Day 1,Pass,NaN,NaN,NaN,Pass,NaN,Pass,NaN,schedule_B,schedule_B,19,9,5,feedback_r,Zone7,timelimit_screen,1999,NaN,NaN,,NaN,0,1,0,NaN,NaN,1,NaN,NaN,trial_right,greenBox.png,greenBox.png,blueBox.png,al2_uncon.png,29,18,NaN,NaN,0.15,0.15,0,0,1,0,Stable,Stable,3.874,0.676,1.496,1.639,inexpert
93,1671283151370,17/12/2022 13:19:11,1671283151317,0,17/12/2022 13:19:11,109680,37,task-qrxs,repeat-7g8d#1->-repeat-38fk#1->-repeat-qjz7#1->-repeat-5t6i#1,26003425,BLIND,7678063,NaN,complete,NaN,NaN,computer,Desktop or Laptop,Mac OS 10.15.7,Safari 14.1.2,1920x1080,1920x1000,End of Day 1,SLS,90,A,Pass,End of Day 1,Pass,NaN,NaN,NaN,Pass,NaN,Pass,NaN,schedule_B,schedule_B,19,9,6,end,Zone1,timelimit_screen,151,NaN,NaN,,NaN,0,1,0,NaN,NaN,1,NaN,NaN,trial_right,greenBox.png,greenBox.png,blueBox.png,al2_uncon.png,29,18,NaN,NaN,0.15,0.15,0,0,1,0,Stable,Stable,3.874,0.676,1.496,1.639,inexpert
94,1671283152467,17/12/2022 13:19:12,1671283152404,0,17/12/2022 13:19:12,109680,37,task-qrxs,repeat-7g8d#1->-repeat-38fk#1->-repeat-qjz7#1->-repeat-5t6i#1,26003425,BLIND,7678063,NaN,complete,NaN,NaN,computer,Desktop or Laptop,Mac OS 10.15.7,Safari 14.1.2,1920x1080,1920x1000,End of Day 1,SLS,90,A,Pass,End of Day 1,Pass,NaN,NaN,NaN,Pass,NaN,Pass,NaN,schedule_B,schedule_B,20,10,1,Screen 1,Zone1,continue_button,1066,NaN,NaN,,NaN,0,1,0,NaN,NaN,NaN,NaN,NaN,trial_left,greenBox.png,greenBox.png,blueBox.png,al2_uncon.png,30,19,NaN,NaN,0.15,0.15,0,1,0,0,Stable,Stable,1.252,1.193,0.853,2.681,inexpert
95,1671283153447,17/12/2022 13:19:13,1671283153400,0,17/12/2022 13:19:13,109680,37,task-qrxs,repeat-7g8d#1->-repeat-38fk#1->-repeat-qjz7#1->-repeat-5t6i#1,26003425,BLIND,7678063,NaN,complete,NaN,NaN,computer,Desktop or Laptop,Mac OS 10.15.7,Safari 14.1.2,1920x1080,1920x1000,End of Day 1,SLS,90,A,Pass,End of Day 1,Pass,NaN,NaN,NaN,Pass,NaN,Pass,NaN,schedule_B,schedule_B,20,10,2,individual,Zone4,timelimit_screen,1000,NaN,NaN,,NaN,0,1,0,NaN,NaN,1,NaN,NaN,trial_left,greenBox.png,greenBox.png,blueBox.png,al2_uncon.png,30,19,NaN,NaN,0.15,0.15,0,1,0,0,Stable,Stable,1.252,1.193,0.853,2.681,inexpert
96,1671283154016,17/12/2022 13:19:14,1671283153955,0,17/12/2022 13:19:13,109680,37,task-qrxs,repeat-7g8d#1->-repeat-38fk#1->-repeat-qjz7#1->-repeat-5t6i#1,26003425,BLIND,7678063,NaN,complete,NaN,NaN,computer,Desktop or Laptop,Mac OS 10.15.7,Safari 14.1.2,1920x1080,1920x1000,End of Day 1,SLS,90,A,Pass,End of Day 1,Pass,NaN,NaN,NaN,Pass,NaN,Pass,NaN,schedule_B,schedule_B,20,10,3,offer,bluebox,response_button_image,546,NaN,NaN,blueBox.png,1,0,1,0,NaN,NaN,NaN,NaN,NaN,trial_left,greenBox.png,greenBox.png,blueBox.png,al2_uncon.png,30,19,NaN,NaN,0.15,0.15,0,1,0,0,Stable,Stable,1.252,1.193,0.853,2.681,inexpert
97,1671283156002,17/12/2022 13:19:16,1671283155951,0,17/12/2022 13:19:15,109680,37,task-qrxs,repeat-7g8d#1->-repeat-38fk#1->-repeat-qjz7#1->-repeat-5t6i#1,26003425,BLIND,7678063,NaN,complete,NaN,NaN,computer,Desktop or Laptop,Mac OS 10.15.7,Safari 14.1.2,1920x1080,1920x1000,End of Day 1,SLS,90,A,Pass,End of Day 1,Pass,NaN,NaN,NaN,Pass,NaN,Pass,NaN,schedule_B,schedule_B,20,10,5,feedback_r,Zone7,timelimit_screen,2000,NaN,NaN,,NaN,0,1,0,NaN,NaN,1,NaN,NaN,trial_left,greenBox.png,greenBox.png,blueBox.png,al2_uncon.png,30,19,NaN,NaN,0.15,0.15,0,1,0,0,Stable,Stable,1.252,1.193,0.853,2.681,inexpert
98,1671283156176,17/12/2022 13:19:16,1671283156100,0,17/12/2022 13:19:16,109680,37,task-qrxs,repeat-7g8d#1->-repeat-38fk#1->-repeat-qjz7#1->-repeat-5t6i#1,26003425,BLIND,7678063,NaN,complete,NaN,NaN,computer,Desktop or Laptop,Mac OS 10.15.7,Safari 14.1.2,1920x1080,1920x1000,End of Day 1,SLS,90,A,Pass,End of Day 1,Pass,NaN,NaN,NaN,Pass,NaN,Pass,NaN,schedule_B,schedule_B,20,10,6,end,Zone1,timelimit_screen,149,NaN,NaN,,NaN,0,1,0,NaN,NaN,1,NaN,NaN,trial_left,greenBox.png,greenBox.png,blueBox.png,al2_uncon.png,30,19,NaN,NaN,0.15,0.15,0,1,0,0,Stable,Stable,1.252,1.193,0.853,2.681,inexpert
99,1671283157176,17/12/2022 13:19:17,1671283157128,0,17/12/2022 13:19:17,109680,37,task-qrxs,repeat-7g8d#1->-repeat-38fk#1->-repeat-qjz7#1->-repeat-5t6i#1,26003425,BLIND,7678063,NaN,complete,NaN,NaN,computer,Desktop or Laptop,Mac OS 10.15.7,Safari 14.1.2,1920x1080,1920x1000,End of Day 1,SLS,90,A,Pass,End of Day 1,Pass,NaN,NaN,NaN,Pass,NaN,Pass,NaN,schedule_B,schedule_B,21,10,1,Screen 1,Zone1,continue_button,1010,NaN,NaN,,NaN,0,1,0,NaN,NaN,NaN,NaN,NaN,trial_right,greenBox.png,greenBox.png,blueBox.png,al2_uncon.png,41,20,NaN,NaN,0.15,0.15,0,0,1,0,Stable,Stable,3.521,1.723,1.37,1.655,inexpert
100,1671283158170,17/12/2022 13:19:18,1671283158117,0,17/12/2022 13:19:18,109680,37,task-qrxs,repeat-7g8d#1->-repeat-38fk#1->-repeat-qjz7#1->-repeat-5t6i#1,26003425,BLIND,7678063,NaN,complete,NaN,NaN,computer,Desktop or Laptop,Mac OS 10.15.7,Safari 14.1.2,1920x1080,1920x1000,End of Day 1,SLS,90,A,Pass,End of Day 1,Pass,NaN,NaN,NaN,Pass,NaN,Pass,NaN,schedule_B,schedule_B,21,10,2,individual,Zone4,timelimit_screen,999,NaN,NaN,,NaN,0,1,0,NaN,NaN,1,NaN,NaN,trial_right,greenBox.png,greenBox.png,blueBox.png,al2_uncon.png,41,20,NaN,NaN,0.15,0.15,0,0,1,0,Stable,Stable,3.521,1.723,1.37,1.655,inexpert
101,1671283158811,17/12/2022 13:19:18,1671283158759,0,17/12/2022 13:19:18,109680,37,task-qrxs,repeat-7g8d#1->-repeat-38fk#1->-repeat-qjz7#1->-repeat-5t6i#1,26003425,BLIND,7678063,NaN,complete,NaN,NaN,computer,Desktop or Laptop,Mac OS 10.15.7,Safari 14.1.2,1920x1080,1920x1000,End of Day 1,SLS,90,A,Pass,End of Day 1,Pass,NaN,NaN,NaN,Pass,NaN,Pass,NaN,schedule_B,schedule_B,21,10,3,offer,Zone3,response_button_image,634,NaN,NaN,blueBox.png,1,0,1,0,NaN,NaN,NaN,NaN,NaN,trial_right,greenBox.png,greenBox.png,blueBox.png,al2_uncon.png,41,20,NaN,NaN,0.15,0.15,0,0,1,0,Stable,Stable,3.521,1.723,1.37,1.655,inexpert
102,1671283161102,17/12/2022 13:19:21,1671283160750,0,17/12/2022 13:19:20,109680,37,task-qrxs,repeat-7g8d#1->-repeat-38fk#1->-repeat-qjz7#1->-repeat-5t6i#1,26003425,BLIND,7678063,NaN,complete,NaN,NaN,computer,Desktop or Laptop,Mac OS 10.15.7,Safari 14.1.2,1920x1080,1920x1000,End of Day 1,SLS,90,A,Pass,End of Day 1,Pass,NaN,NaN,NaN,Pass,NaN,Pass,NaN,schedule_B,schedule_B,21,10,5,feedback_r,Zone7,timelimit_screen,1999,NaN,NaN,,NaN,0,1,0,NaN,NaN,1,NaN,NaN,trial_right,greenBox.png,greenBox.png,blueBox.png,al2_uncon.png,41,20,NaN,NaN,0.15,0.15,0,0,1,0,Stable,Stable,3.521,1.723,1.37,1.655,inexpert
103,1671283161205,17/12/2022 13:19:21,1671283160900,0,17/12/2022 13:19:20,109680,37,task-qrxs,repeat-7g8d#1->-repeat-38fk#1->-repeat-qjz7#1->-repeat-5t6i#1,26003425,BLIND,7678063,NaN,complete,NaN,NaN,computer,Desktop or Laptop,Mac OS 10.15.7,Safari 14.1.2,1920x1080,1920x1000,End of Day 1,SLS,90,A,Pass,End of Day 1,Pass,NaN,NaN,NaN,Pass,NaN,Pass,NaN,schedule_B,schedule_B,21,10,6,end,Zone1,timelimit_screen,150,NaN,NaN,,NaN,0,1,0,NaN,NaN,1,NaN,NaN,trial_right,greenBox.png,greenBox.png,blueBox.png,al2_uncon.png,41,20,NaN,NaN,0.15,0.15,0,0,1,0,Stable,Stable,3.521,1.723,1.37,1.655,inexpert
104,1671283163273,17/12/2022 13:19:23,1671283163212,0,17/12/2022 13:19:23,109680,37,task-qrxs,repeat-7g8d#1->-repeat-38fk#1->-repeat-qjz7#1->-repeat-5t6i#1,26003425,BLIND,7678063,NaN,complete,NaN,NaN,computer,Desktop or Laptop,Mac OS 10.15.7,Safari 14.1.2,1920x1080,1920x1000,End of Day 1,SLS,90,A,Pass,End of Day 1,Pass,NaN,NaN,NaN,Pass,NaN,Pass,NaN,schedule_B,schedule_B,22,11,1,Screen 1,Zone1,continue_button,2298,NaN,NaN,,NaN,0,1,0,NaN,NaN,NaN,NaN,NaN,trial_left,blueBox.png,blueBox.png,greenBox.png,al2_uncon.png,42,21,NaN,NaN,0.85,0.15,1,1,1,1,Stable,Stable,2.336,0.651,1.685,2.882,inexpert
105,1671283164264,17/12/2022 13:19:24,1671283164200,0,17/12/2022 13:19:24,109680,37,task-qrxs,repeat-7g8d#1->-repeat-38fk#1->-repeat-qjz7#1->-repeat-5t6i#1,26003425,BLIND,7678063,NaN,complete,NaN,NaN,computer,Desktop or Laptop,Mac OS 10.15.7,Safari 14.1.2,1920x1080,1920x1000,End of Day 1,SLS,90,A,Pass,End of Day 1,Pass,NaN,NaN,NaN,Pass,NaN,Pass,NaN,schedule_B,schedule_B,22,11,2,individual,Zone4,timelimit_screen,1000,NaN,NaN,,NaN,0,1,0,NaN,NaN,1,NaN,NaN,trial_left,blueBox.png,blueBox.png,greenBox.png,al2_uncon.png,42,21,NaN,NaN,0.85,0.15,1,1,1,1,Stable,Stable,2.336,0.651,1.685,2.882,inexpert
106,1671283164758,17/12/2022 13:19:24,1671283164700,0,17/12/2022 13:19:24,109680,37,task-qrxs,repeat-7g8d#1->-repeat-38fk#1->-repeat-qjz7#1->-repeat-5t6i#1,26003425,BLIND,7678063,NaN,complete,NaN,NaN,computer,Desktop or Laptop,Mac OS 10.15.7,Safari 14.1.2,1920x1080,1920x1000,End of Day 1,SLS,90,A,Pass,End of Day 1,Pass,NaN,NaN,NaN,Pass,NaN,Pass,NaN,schedule_B,schedule_B,22,11,3,offer,bluebox,response_button_image,489.000000000015,NaN,NaN,greenBox.png,1,0,1,0,NaN,NaN,NaN,NaN,NaN,trial_left,blueBox.png,blueBox.png,greenBox.png,al2_uncon.png,42,21,NaN,NaN,0.85,0.15,1,1,1,1,Stable,Stable,2.336,0.651,1.685,2.882,inexpert
107,1671283166786,17/12/2022 13:19:26,1671283166684,0,17/12/2022 13:19:26,109680,37,task-qrxs,repeat-7g8d#1->-repeat-38fk#1->-repeat-qjz7#1->-repeat-5t6i#1,26003425,BLIND,7678063,NaN,complete,NaN,NaN,computer,Desktop or Laptop,Mac OS 10.15.7,Safari 14.1.2,1920x1080,1920x1000,End of Day 1,SLS,90,A,Pass,End of Day 1,Pass,NaN,NaN,NaN,Pass,NaN,Pass,NaN,schedule_B,schedule_B,22,11,5,feedback_r,Zone7,timelimit_screen,2000,NaN,NaN,,NaN,0,1,0,NaN,NaN,1,NaN,NaN,trial_left,blueBox.png,blueBox.png,greenBox.png,al2_uncon.png,42,21,NaN,NaN,0.85,0.15,1,1,1,1,Stable,Stable,2.336,0.651,1.685,2.882,inexpert
108,1671283166893,17/12/2022 13:19:26,1671283166834,0,17/12/2022 13:19:26,109680,37,task-qrxs,repeat-7g8d#1->-repeat-38fk#1->-repeat-qjz7#1->-repeat-5t6i#1,26003425,BLIND,7678063,NaN,complete,NaN,NaN,computer,Desktop or Laptop,Mac OS 10.15.7,Safari 14.1.2,1920x1080,1920x1000,End of Day 1,SLS,90,A,Pass,End of Day 1,Pass,NaN,NaN,NaN,Pass,NaN,Pass,NaN,schedule_B,schedule_B,22,11,6,end,Zone1,timelimit_screen,149,NaN,NaN,,NaN,0,1,0,NaN,NaN,1,NaN,NaN,trial_left,blueBox.png,blueBox.png,greenBox.png,al2_uncon.png,42,21,NaN,NaN,0.85,0.15,1,1,1,1,Stable,Stable,2.336,0.651,1.685,2.882,inexpert
109,1671283167879,17/12/2022 13:19:27,1671283167826,0,17/12/2022 13:19:27,109680,37,task-qrxs,repeat-7g8d#1->-repeat-38fk#1->-repeat-qjz7#1->-repeat-5t6i#1,26003425,BLIND,7678063,NaN,complete,NaN,NaN,computer,Desktop or Laptop,Mac OS 10.15.7,Safari 14.1.2,1920x1080,1920x1000,End of Day 1,SLS,90,A,Pass,End of Day 1,Pass,NaN,NaN,NaN,Pass,NaN,Pass,NaN,schedule_B,schedule_B,23,11,1,Screen 1,Zone1,continue_button,973.999999999985,NaN,NaN,,NaN,0,1,0,NaN,NaN,NaN,NaN,NaN,trial_right,blueBox.png,blueBox.png,greenBox.png,al2_uncon.png,43,22,NaN,NaN,0.85,0.15,1,0,0,1,Stable,Stable,3.622,1.319,1.193,1.067,inexpert
110,1671283168876,17/12/2022 13:19:28,1671283168818,0,17/12/2022 13:19:28,109680,37,task-qrxs,repeat-7g8d#1->-repeat-38fk#1->-repeat-qjz7#1->-repeat-5t6i#1,26003425,BLIND,7678063,NaN,complete,NaN,NaN,computer,Desktop or Laptop,Mac OS 10.15.7,Safari 14.1.2,1920x1080,1920x1000,End of Day 1,SLS,90,A,Pass,End of Day 1,Pass,NaN,NaN,NaN,Pass,NaN,Pass,NaN,schedule_B,schedule_B,23,11,2,individual,Zone4,timelimit_screen,1000,NaN,NaN,,NaN,0,1,0,NaN,NaN,1,NaN,NaN,trial_right,blueBox.png,blueBox.png,greenBox.png,al2_uncon.png,43,22,NaN,NaN,0.85,0.15,1,0,0,1,Stable,Stable,3.622,1.319,1.193,1.067,inexpert
111,1671283169505,17/12/2022 13:19:29,1671283169448,0,17/12/2022 13:19:29,109680,37,task-qrxs,repeat-7g8d#1->-repeat-38fk#1->-repeat-qjz7#1->-repeat-5t6i#1,26003425,BLIND,7678063,NaN,complete,NaN,NaN,computer,Desktop or Laptop,Mac OS 10.15.7,Safari 14.1.2,1920x1080,1920x1000,End of Day 1,SLS,90,A,Pass,End of Day 1,Pass,NaN,NaN,NaN,Pass,NaN,Pass,NaN,schedule_B,schedule_B,23,11,3,offer,Zone2,response_button_image,619,NaN,NaN,blueBox.png,1,1,0,0,NaN,NaN,NaN,NaN,NaN,trial_right,blueBox.png,blueBox.png,greenBox.png,al2_uncon.png,43,22,NaN,NaN,0.85,0.15,1,0,0,1,Stable,Stable,3.622,1.319,1.193,1.067,inexpert
112,1671283171489,17/12/2022 13:19:31,1671283171434,0,17/12/2022 13:19:31,109680,37,task-qrxs,repeat-7g8d#1->-repeat-38fk#1->-repeat-qjz7#1->-repeat-5t6i#1,26003425,BLIND,7678063,NaN,complete,NaN,NaN,computer,Desktop or Laptop,Mac OS 10.15.7,Safari 14.1.2,1920x1080,1920x1000,End of Day 1,SLS,90,A,Pass,End of Day 1,Pass,NaN,NaN,NaN,Pass,NaN,Pass,NaN,schedule_B,schedule_B,23,11,4,feedback_l,Zone7,timelimit_screen,1999,NaN,NaN,,NaN,0,1,0,NaN,NaN,1,NaN,NaN,trial_right,blueBox.png,blueBox.png,greenBox.png,al2_uncon.png,43,22,NaN,NaN,0.85,0.15,1,0,0,1,Stable,Stable,3.622,1.319,1.193,1.067,inexpert
113,1671283171819,17/12/2022 13:19:31,1671283171583,0,17/12/2022 13:19:31,109680,37,task-qrxs,repeat-7g8d#1->-repeat-38fk#1->-repeat-qjz7#1->-repeat-5t6i#1,26003425,BLIND,7678063,NaN,complete,NaN,NaN,computer,Desktop or Laptop,Mac OS 10.15.7,Safari 14.1.2,1920x1080,1920x1000,End of Day 1,SLS,90,A,Pass,End of Day 1,Pass,NaN,NaN,NaN,Pass,NaN,Pass,NaN,schedule_B,schedule_B,23,11,6,end,Zone1,timelimit_screen,150,NaN,NaN,,NaN,0,1,0,NaN,NaN,1,NaN,NaN,trial_right,blueBox.png,blueBox.png,greenBox.png,al2_uncon.png,43,22,NaN,NaN,0.85,0.15,1,0,0,1,Stable,Stable,3.622,1.319,1.193,1.067,inexpert
114,1671283172385,17/12/2022 13:19:32,1671283172338,0,17/12/2022 13:19:32,109680,37,task-qrxs,repeat-7g8d#1->-repeat-38fk#1->-repeat-qjz7#1->-repeat-5t6i#1,26003425,BLIND,7678063,NaN,complete,NaN,NaN,computer,Desktop or Laptop,Mac OS 10.15.7,Safari 14.1.2,1920x1080,1920x1000,End of Day 1,SLS,90,A,Pass,End of Day 1,Pass,NaN,NaN,NaN,Pass,NaN,Pass,NaN,schedule_B,schedule_B,24,12,1,Screen 1,Zone1,continue_button,740,NaN,NaN,,NaN,0,1,0,NaN,NaN,NaN,NaN,NaN,trial_left,blueBox.png,greenBox.png,blueBox.png,al2_uncon.png,44,23,NaN,NaN,0.85,0.15,1,0,0,0,Stable,Stable,1.731,0.853,2,1.202,inexpert
115,1671283173384,17/12/2022 13:19:33,1671283173334,0,17/12/2022 13:19:33,109680,37,task-qrxs,repeat-7g8d#1->-repeat-38fk#1->-repeat-qjz7#1->-repeat-5t6i#1,26003425,BLIND,7678063,NaN,complete,NaN,NaN,computer,Desktop or Laptop,Mac OS 10.15.7,Safari 14.1.2,1920x1080,1920x1000,End of Day 1,SLS,90,A,Pass,End of Day 1,Pass,NaN,NaN,NaN,Pass,NaN,Pass,NaN,schedule_B,schedule_B,24,12,2,individual,Zone4,timelimit_screen,1000,NaN,NaN,,NaN,0,1,0,NaN,NaN,1,NaN,NaN,trial_left,blueBox.png,greenBox.png,blueBox.png,al2_uncon.png,44,23,NaN,NaN,0.85,0.15,1,0,0,0,Stable,Stable,1.731,0.853,2,1.202,inexpert
116,1671283174010,17/12/2022 13:19:34,1671283173959,0,17/12/2022 13:19:33,109680,37,task-qrxs,repeat-7g8d#1->-repeat-38fk#1->-repeat-qjz7#1->-repeat-5t6i#1,26003425,BLIND,7678063,NaN,complete,NaN,NaN,computer,Desktop or Laptop,Mac OS 10.15.7,Safari 14.1.2,1920x1080,1920x1000,End of Day 1,SLS,90,A,Pass,End of Day 1,Pass,NaN,NaN,NaN,Pass,NaN,Pass,NaN,schedule_B,schedule_B,24,12,3,offer,Zone2,response_button_image,614.000000000015,NaN,NaN,greenBox.png,1,0,1,0,NaN,NaN,NaN,NaN,NaN,trial_left,blueBox.png,greenBox.png,blueBox.png,al2_uncon.png,44,23,NaN,NaN,0.85,0.15,1,0,0,0,Stable,Stable,1.731,0.853,2,1.202,inexpert
117,1671283176015,17/12/2022 13:19:36,1671283175950,0,17/12/2022 13:19:35,109680,37,task-qrxs,repeat-7g8d#1->-repeat-38fk#1->-repeat-qjz7#1->-repeat-5t6i#1,26003425,BLIND,7678063,NaN,complete,NaN,NaN,computer,Desktop or Laptop,Mac OS 10.15.7,Safari 14.1.2,1920x1080,1920x1000,End of Day 1,SLS,90,A,Pass,End of Day 1,Pass,NaN,NaN,NaN,Pass,NaN,Pass,NaN,schedule_B,schedule_B,24,12,4,feedback_l,Zone7,timelimit_screen,1999,NaN,NaN,,NaN,0,1,0,NaN,NaN,1,NaN,NaN,trial_left,blueBox.png,greenBox.png,blueBox.png,al2_uncon.png,44,23,NaN,NaN,0.85,0.15,1,0,0,0,Stable,Stable,1.731,0.853,2,1.202,inexpert
118,1671283176162,17/12/2022 13:19:36,1671283176101,0,17/12/2022 13:19:36,109680,37,task-qrxs,repeat-7g8d#1->-repeat-38fk#1->-repeat-qjz7#1->-repeat-5t6i#1,26003425,BLIND,7678063,NaN,complete,NaN,NaN,computer,Desktop or Laptop,Mac OS 10.15.7,Safari 14.1.2,1920x1080,1920x1000,End of Day 1,SLS,90,A,Pass,End of Day 1,Pass,NaN,NaN,NaN,Pass,NaN,Pass,NaN,schedule_B,schedule_B,24,12,6,end,Zone1,timelimit_screen,151,NaN,NaN,,NaN,0,1,0,NaN,NaN,1,NaN,NaN,trial_left,blueBox.png,greenBox.png,blueBox.png,al2_uncon.png,44,23,NaN,NaN,0.85,0.15,1,0,0,0,Stable,Stable,1.731,0.853,2,1.202,inexpert
119,1671283176790,17/12/2022 13:19:36,1671283176726,0,17/12/2022 13:19:36,109680,37,task-qrxs,repeat-7g8d#1->-repeat-38fk#1->-repeat-qjz7#1->-repeat-5t6i#1,26003425,BLIND,7678063,NaN,complete,NaN,NaN,computer,Desktop or Laptop,Mac OS 10.15.7,Safari 14.1.2,1920x1080,1920x1000,End of Day 1,SLS,90,A,Pass,End of Day 1,Pass,NaN,NaN,NaN,Pass,NaN,Pass,NaN,schedule_B,schedule_B,25,13,1,Screen 1,Zone1,continue_button,605,NaN,NaN,,NaN,0,1,0,NaN,NaN,NaN,NaN,NaN,trial_left,blueBox.png,blueBox.png,greenBox.png,al2_uncon.png,45,24,NaN,NaN,0.85,0.15,1,1,1,1,Stable,Stable,2.109,1.798,1.508,2.782,inexpert
120,1671283177760,17/12/2022 13:19:37,1671283177717,0,17/12/2022 13:19:37,109680,37,task-qrxs,repeat-7g8d#1->-repeat-38fk#1->-repeat-qjz7#1->-repeat-5t6i#1,26003425,BLIND,7678063,NaN,complete,NaN,NaN,computer,Desktop or Laptop,Mac OS 10.15.7,Safari 14.1.2,1920x1080,1920x1000,End of Day 1,SLS,90,A,Pass,End of Day 1,Pass,NaN,NaN,NaN,Pass,NaN,Pass,NaN,schedule_B,schedule_B,25,13,2,individual,Zone4,timelimit_screen,1000,NaN,NaN,,NaN,0,1,0,NaN,NaN,1,NaN,NaN,trial_left,blueBox.png,blueBox.png,greenBox.png,al2_uncon.png,45,24,NaN,NaN,0.85,0.15,1,1,1,1,Stable,Stable,2.109,1.798,1.508,2.782,inexpert
121,1671283178480,17/12/2022 13:19:38,1671283178436,0,17/12/2022 13:19:38,109680,37,task-qrxs,repeat-7g8d#1->-repeat-38fk#1->-repeat-qjz7#1->-repeat-5t6i#1,26003425,BLIND,7678063,NaN,complete,NaN,NaN,computer,Desktop or Laptop,Mac OS 10.15.7,Safari 14.1.2,1920x1080,1920x1000,End of Day 1,SLS,90,A,Pass,End of Day 1,Pass,NaN,NaN,NaN,Pass,NaN,Pass,NaN,schedule_B,schedule_B,25,13,3,offer,bluebox,response_button_image,710,NaN,NaN,greenBox.png,1,0,1,0,NaN,NaN,NaN,NaN,NaN,trial_left,blueBox.png,blueBox.png,greenBox.png,al2_uncon.png,45,24,NaN,NaN,0.85,0.15,1,1,1,1,Stable,Stable,2.109,1.798,1.508,2.782,inexpert
122,1671283180490,17/12/2022 13:19:40,1671283180434,0,17/12/2022 13:19:40,109680,37,task-qrxs,repeat-7g8d#1->-repeat-38fk#1->-repeat-qjz7#1->-repeat-5t6i#1,26003425,BLIND,7678063,NaN,complete,NaN,NaN,computer,Desktop or Laptop,Mac OS 10.15.7,Safari 14.1.2,1920x1080,1920x1000,End of Day 1,SLS,90,A,Pass,End of Day 1,Pass,NaN,NaN,NaN,Pass,NaN,Pass,NaN,schedule_B,schedule_B,25,13,5,feedback_r,Zone7,timelimit_screen,2000,NaN,NaN,,NaN,0,1,0,NaN,NaN,1,NaN,NaN,trial_left,blueBox.png,blueBox.png,greenBox.png,al2_uncon.png,45,24,NaN,NaN,0.85,0.15,1,1,1,1,Stable,Stable,2.109,1.798,1.508,2.782,inexpert
123,1671283180968,17/12/2022 13:19:40,1671283180583,0,17/12/2022 13:19:40,109680,37,task-qrxs,repeat-7g8d#1->-repeat-38fk#1->-repeat-qjz7#1->-repeat-5t6i#1,26003425,BLIND,7678063,NaN,complete,NaN,NaN,computer,Desktop or Laptop,Mac OS 10.15.7,Safari 14.1.2,1920x1080,1920x1000,End of Day 1,SLS,90,A,Pass,End of Day 1,Pass,NaN,NaN,NaN,Pass,NaN,Pass,NaN,schedule_B,schedule_B,25,13,6,end,Zone1,timelimit_screen,150,NaN,NaN,,NaN,0,1,0,NaN,NaN,1,NaN,NaN,trial_left,blueBox.png,blueBox.png,greenBox.png,al2_uncon.png,45,24,NaN,NaN,0.85,0.15,1,1,1,1,Stable,Stable,2.109,1.798,1.508,2.782,inexpert
124,1671283181859,17/12/2022 13:19:41,1671283181811,0,17/12/2022 13:19:41,109680,37,task-qrxs,repeat-7g8d#1->-repeat-38fk#1->-repeat-qjz7#1->-repeat-5t6i#1,26003425,BLIND,7678063,NaN,complete,NaN,NaN,computer,Desktop or Laptop,Mac OS 10.15.7,Safari 14.1.2,1920x1080,1920x1000,End of Day 1,SLS,90,A,Pass,End of Day 1,Pass,NaN,NaN,NaN,Pass,NaN,Pass,NaN,schedule_B,schedule_B,26,12,1,Screen 1,Zone1,continue_button,1212.00000000001,NaN,NaN,,NaN,0,1,0,NaN,NaN,NaN,NaN,NaN,trial_right,blueBox.png,greenBox.png,blueBox.png,al2_uncon.png,46,25,NaN,NaN,0.85,0.15,1,1,1,0,Stable,Stable,2.916,1.294,1.962,2.361,inexpert
125,1671283182851,17/12/2022 13:19:42,1671283182800,0,17/12/2022 13:19:42,109680,37,task-qrxs,repeat-7g8d#1->-repeat-38fk#1->-repeat-qjz7#1->-repeat-5t6i#1,26003425,BLIND,7678063,NaN,complete,NaN,NaN,computer,Desktop or Laptop,Mac OS 10.15.7,Safari 14.1.2,1920x1080,1920x1000,End of Day 1,SLS,90,A,Pass,End of Day 1,Pass,NaN,NaN,NaN,Pass,NaN,Pass,NaN,schedule_B,schedule_B,26,12,2,individual,Zone4,timelimit_screen,999,NaN,NaN,,NaN,0,1,0,NaN,NaN,1,NaN,NaN,trial_right,blueBox.png,greenBox.png,blueBox.png,al2_uncon.png,46,25,NaN,NaN,0.85,0.15,1,1,1,0,Stable,Stable,2.916,1.294,1.962,2.361,inexpert
126,1671283183555,17/12/2022 13:19:43,1671283183442,0,17/12/2022 13:19:43,109680,37,task-qrxs,repeat-7g8d#1->-repeat-38fk#1->-repeat-qjz7#1->-repeat-5t6i#1,26003425,BLIND,7678063,NaN,complete,NaN,NaN,computer,Desktop or Laptop,Mac OS 10.15.7,Safari 14.1.2,1920x1080,1920x1000,End of Day 1,SLS,90,A,Pass,End of Day 1,Pass,NaN,NaN,NaN,Pass,NaN,Pass,NaN,schedule_B,schedule_B,26,12,3,offer,Zone2,response_button_image,632.000000000015,NaN,NaN,greenBox.png,1,0,1,0,NaN,NaN,NaN,NaN,NaN,trial_right,blueBox.png,greenBox.png,blueBox.png,al2_uncon.png,46,25,NaN,NaN,0.85,0.15,1,1,1,0,Stable,Stable,2.916,1.294,1.962,2.361,inexpert
127,1671283185480,17/12/2022 13:19:45,1671283185434,0,17/12/2022 13:19:45,109680,37,task-qrxs,repeat-7g8d#1->-repeat-38fk#1->-repeat-qjz7#1->-repeat-5t6i#1,26003425,BLIND,7678063,NaN,complete,NaN,NaN,computer,Desktop or Laptop,Mac OS 10.15.7,Safari 14.1.2,1920x1080,1920x1000,End of Day 1,SLS,90,A,Pass,End of Day 1,Pass,NaN,NaN,NaN,Pass,NaN,Pass,NaN,schedule_B,schedule_B,26,12,4,feedback_l,Zone7,timelimit_screen,2000,NaN,NaN,,NaN,0,1,0,NaN,NaN,1,NaN,NaN,trial_right,blueBox.png,greenBox.png,blueBox.png,al2_uncon.png,46,25,NaN,NaN,0.85,0.15,1,1,1,0,Stable,Stable,2.916,1.294,1.962,2.361,inexpert
128,1671283185659,17/12/2022 13:19:45,1671283185584,0,17/12/2022 13:19:45,109680,37,task-qrxs,repeat-7g8d#1->-repeat-38fk#1->-repeat-qjz7#1->-repeat-5t6i#1,26003425,BLIND,7678063,NaN,complete,NaN,NaN,computer,Desktop or Laptop,Mac OS 10.15.7,Safari 14.1.2,1920x1080,1920x1000,End of Day 1,SLS,90,A,Pass,End of Day 1,Pass,NaN,NaN,NaN,Pass,NaN,Pass,NaN,schedule_B,schedule_B,26,12,6,end,Zone1,timelimit_screen,151,NaN,NaN,,NaN,0,1,0,NaN,NaN,1,NaN,NaN,trial_right,blueBox.png,greenBox.png,blueBox.png,al2_uncon.png,46,25,NaN,NaN,0.85,0.15,1,1,1,0,Stable,Stable,2.916,1.294,1.962,2.361,inexpert
129,1671283186605,17/12/2022 13:19:46,1671283186547,0,17/12/2022 13:19:46,109680,37,task-qrxs,repeat-7g8d#1->-repeat-38fk#1->-repeat-qjz7#1->-repeat-5t6i#1,26003425,BLIND,7678063,NaN,complete,NaN,NaN,computer,Desktop or Laptop,Mac OS 10.15.7,Safari 14.1.2,1920x1080,1920x1000,End of Day 1,SLS,90,A,Pass,End of Day 1,Pass,NaN,NaN,NaN,Pass,NaN,Pass,NaN,schedule_B,schedule_B,27,13,1,Screen 1,Zone1,continue_button,947.999999999985,NaN,NaN,,NaN,0,1,0,NaN,NaN,NaN,NaN,NaN,trial_right,blueBox.png,blueBox.png,greenBox.png,al2_uncon.png,47,26,NaN,NaN,0.85,0.15,1,0,0,1,Stable,Stable,2.487,1.697,1.13,1.286,inexpert
130,1671283187586,17/12/2022 13:19:47,1671283187534,0,17/12/2022 13:19:47,109680,37,task-qrxs,repeat-7g8d#1->-repeat-38fk#1->-repeat-qjz7#1->-repeat-5t6i#1,26003425,BLIND,7678063,NaN,complete,NaN,NaN,computer,Desktop or Laptop,Mac OS 10.15.7,Safari 14.1.2,1920x1080,1920x1000,End of Day 1,SLS,90,A,Pass,End of Day 1,Pass,NaN,NaN,NaN,Pass,NaN,Pass,NaN,schedule_B,schedule_B,27,13,2,individual,Zone4,timelimit_screen,1000,NaN,NaN,,NaN,0,1,0,NaN,NaN,1,NaN,NaN,trial_right,blueBox.png,blueBox.png,greenBox.png,al2_uncon.png,47,26,NaN,NaN,0.85,0.15,1,0,0,1,Stable,Stable,2.487,1.697,1.13,1.286,inexpert
131,1671283188283,17/12/2022 13:19:48,1671283188223,0,17/12/2022 13:19:48,109680,37,task-qrxs,repeat-7g8d#1->-repeat-38fk#1->-repeat-qjz7#1->-repeat-5t6i#1,26003425,BLIND,7678063,NaN,complete,NaN,NaN,computer,Desktop or Laptop,Mac OS 10.15.7,Safari 14.1.2,1920x1080,1920x1000,End of Day 1,SLS,90,A,Pass,End of Day 1,Pass,NaN,NaN,NaN,Pass,NaN,Pass,NaN,schedule_B,schedule_B,27,13,3,offer,Zone3,response_button_image,679.999999999971,NaN,NaN,greenBox.png,1,0,1,0,NaN,NaN,NaN,NaN,NaN,trial_right,blueBox.png,blueBox.png,greenBox.png,al2_uncon.png,47,26,NaN,NaN,0.85,0.15,1,0,0,1,Stable,Stable,2.487,1.697,1.13,1.286,inexpert
132,1671283190274,17/12/2022 13:19:50,1671283190217,0,17/12/2022 13:19:50,109680,37,task-qrxs,repeat-7g8d#1->-repeat-38fk#1->-repeat-qjz7#1->-repeat-5t6i#1,26003425,BLIND,7678063,NaN,complete,NaN,NaN,computer,Desktop or Laptop,Mac OS 10.15.7,Safari 14.1.2,1920x1080,1920x1000,End of Day 1,SLS,90,A,Pass,End of Day 1,Pass,NaN,NaN,NaN,Pass,NaN,Pass,NaN,schedule_B,schedule_B,27,13,5,feedback_r,Zone7,timelimit_screen,2000,NaN,NaN,,NaN,0,1,0,NaN,NaN,1,NaN,NaN,trial_right,blueBox.png,blueBox.png,greenBox.png,al2_uncon.png,47,26,NaN,NaN,0.85,0.15,1,0,0,1,Stable,Stable,2.487,1.697,1.13,1.286,inexpert
133,1671283190419,17/12/2022 13:19:50,1671283190367,0,17/12/2022 13:19:50,109680,37,task-qrxs,repeat-7g8d#1->-repeat-38fk#1->-repeat-qjz7#1->-repeat-5t6i#1,26003425,BLIND,7678063,NaN,complete,NaN,NaN,computer,Desktop or Laptop,Mac OS 10.15.7,Safari 14.1.2,1920x1080,1920x1000,End of Day 1,SLS,90,A,Pass,End of Day 1,Pass,NaN,NaN,NaN,Pass,NaN,Pass,NaN,schedule_B,schedule_B,27,13,6,end,Zone1,timelimit_screen,149,NaN,NaN,,NaN,0,1,0,NaN,NaN,1,NaN,NaN,trial_right,blueBox.png,blueBox.png,greenBox.png,al2_uncon.png,47,26,NaN,NaN,0.85,0.15,1,0,0,1,Stable,Stable,2.487,1.697,1.13,1.286,inexpert
134,1671283190958,17/12/2022 13:19:50,1671283190901,0,17/12/2022 13:19:50,109680,37,task-qrxs,repeat-7g8d#1->-repeat-38fk#1->-repeat-qjz7#1->-repeat-5t6i#1,26003425,BLIND,7678063,NaN,complete,NaN,NaN,computer,Desktop or Laptop,Mac OS 10.15.7,Safari 14.1.2,1920x1080,1920x1000,End of Day 1,SLS,90,A,Pass,End of Day 1,Pass,NaN,NaN,NaN,Pass,NaN,Pass,NaN,schedule_B,schedule_B,28,14,1,Screen 1,Zone1,continue_button,519,NaN,NaN,,NaN,0,1,0,NaN,NaN,NaN,NaN,NaN,trial_left,blueBox.png,greenBox.png,blueBox.png,al2_uncon.png,48,27,NaN,NaN,0.85,0.15,1,0,0,0,Stable,Stable,3.824,1.634,0.992,2.244,inexpert
135,1671283191953,17/12/2022 13:19:51,1671283191885,0,17/12/2022 13:19:51,109680,37,task-qrxs,repeat-7g8d#1->-repeat-38fk#1->-repeat-qjz7#1->-repeat-5t6i#1,26003425,BLIND,7678063,NaN,complete,NaN,NaN,computer,Desktop or Laptop,Mac OS 10.15.7,Safari 14.1.2,1920x1080,1920x1000,End of Day 1,SLS,90,A,Pass,End of Day 1,Pass,NaN,NaN,NaN,Pass,NaN,Pass,NaN,schedule_B,schedule_B,28,14,2,individual,Zone4,timelimit_screen,1001,NaN,NaN,,NaN,0,1,0,NaN,NaN,1,NaN,NaN,trial_left,blueBox.png,greenBox.png,blueBox.png,al2_uncon.png,48,27,NaN,NaN,0.85,0.15,1,0,0,0,Stable,Stable,3.824,1.634,0.992,2.244,inexpert
136,1671283192845,17/12/2022 13:19:52,1671283192791,0,17/12/2022 13:19:52,109680,37,task-qrxs,repeat-7g8d#1->-repeat-38fk#1->-repeat-qjz7#1->-repeat-5t6i#1,26003425,BLIND,7678063,NaN,complete,NaN,NaN,computer,Desktop or Laptop,Mac OS 10.15.7,Safari 14.1.2,1920x1080,1920x1000,End of Day 1,SLS,90,A,Pass,End of Day 1,Pass,NaN,NaN,NaN,Pass,NaN,Pass,NaN,schedule_B,schedule_B,28,14,3,offer,Zone2,response_button_image,898,NaN,NaN,greenBox.png,1,0,1,0,NaN,NaN,NaN,NaN,NaN,trial_left,blueBox.png,greenBox.png,blueBox.png,al2_uncon.png,48,27,NaN,NaN,0.85,0.15,1,0,0,0,Stable,Stable,3.824,1.634,0.992,2.244,inexpert
137,1671283194846,17/12/2022 13:19:54,1671283194784,0,17/12/2022 13:19:54,109680,37,task-qrxs,repeat-7g8d#1->-repeat-38fk#1->-repeat-qjz7#1->-repeat-5t6i#1,26003425,BLIND,7678063,NaN,complete,NaN,NaN,computer,Desktop or Laptop,Mac OS 10.15.7,Safari 14.1.2,1920x1080,1920x1000,End of Day 1,SLS,90,A,Pass,End of Day 1,Pass,NaN,NaN,NaN,Pass,NaN,Pass,NaN,schedule_B,schedule_B,28,14,4,feedback_l,Zone7,timelimit_screen,1999,NaN,NaN,,NaN,0,1,0,NaN,NaN,1,NaN,NaN,trial_left,blueBox.png,greenBox.png,blueBox.png,al2_uncon.png,48,27,NaN,NaN,0.85,0.15,1,0,0,0,Stable,Stable,3.824,1.634,0.992,2.244,inexpert
138,1671283194990,17/12/2022 13:19:54,1671283194934,0,17/12/2022 13:19:54,109680,37,task-qrxs,repeat-7g8d#1->-repeat-38fk#1->-repeat-qjz7#1->-repeat-5t6i#1,26003425,BLIND,7678063,NaN,complete,NaN,NaN,computer,Desktop or Laptop,Mac OS 10.15.7,Safari 14.1.2,1920x1080,1920x1000,End of Day 1,SLS,90,A,Pass,End of Day 1,Pass,NaN,NaN,NaN,Pass,NaN,Pass,NaN,schedule_B,schedule_B,28,14,6,end,Zone1,timelimit_screen,150,NaN,NaN,,NaN,0,1,0,NaN,NaN,1,NaN,NaN,trial_left,blueBox.png,greenBox.png,blueBox.png,al2_uncon.png,48,27,NaN,NaN,0.85,0.15,1,0,0,0,Stable,Stable,3.824,1.634,0.992,2.244,inexpert
139,1671283195696,17/12/2022 13:19:55,1671283195637,0,17/12/2022 13:19:55,109680,37,task-qrxs,repeat-7g8d#1->-repeat-38fk#1->-repeat-qjz7#1->-repeat-5t6i#1,26003425,BLIND,7678063,NaN,complete,NaN,NaN,computer,Desktop or Laptop,Mac OS 10.15.7,Safari 14.1.2,1920x1080,1920x1000,End of Day 1,SLS,90,A,Pass,End of Day 1,Pass,NaN,NaN,NaN,Pass,NaN,Pass,NaN,schedule_B,schedule_B,29,14,1,Screen 1,Zone1,continue_button,688,NaN,NaN,,NaN,0,1,0,NaN,NaN,NaN,NaN,NaN,trial_right,blueBox.png,blueBox.png,greenBox.png,al2_uncon.png,49,28,NaN,NaN,0.85,0.15,1,0,0,1,Stable,Stable,2.84,1.937,1.723,2.815,inexpert
140,1671283196739,17/12/2022 13:19:56,1671283196635,0,17/12/2022 13:19:56,109680,37,task-qrxs,repeat-7g8d#1->-repeat-38fk#1->-repeat-qjz7#1->-repeat-5t6i#1,26003425,BLIND,7678063,NaN,complete,NaN,NaN,computer,Desktop or Laptop,Mac OS 10.15.7,Safari 14.1.2,1920x1080,1920x1000,End of Day 1,SLS,90,A,Pass,End of Day 1,Pass,NaN,NaN,NaN,Pass,NaN,Pass,NaN,schedule_B,schedule_B,29,14,2,individual,Zone4,timelimit_screen,1000,NaN,NaN,,NaN,0,1,0,NaN,NaN,1,NaN,NaN,trial_right,blueBox.png,blueBox.png,greenBox.png,al2_uncon.png,49,28,NaN,NaN,0.85,0.15,1,0,0,1,Stable,Stable,2.84,1.937,1.723,2.815,inexpert
141,1671283197408,17/12/2022 13:19:57,1671283197302,0,17/12/2022 13:19:57,109680,37,task-qrxs,repeat-7g8d#1->-repeat-38fk#1->-repeat-qjz7#1->-repeat-5t6i#1,26003425,BLIND,7678063,NaN,complete,NaN,NaN,computer,Desktop or Laptop,Mac OS 10.15.7,Safari 14.1.2,1920x1080,1920x1000,End of Day 1,SLS,90,A,Pass,End of Day 1,Pass,NaN,NaN,NaN,Pass,NaN,Pass,NaN,schedule_B,schedule_B,29,14,3,offer,Zone2,response_button_image,658,NaN,NaN,blueBox.png,1,1,0,0,NaN,NaN,NaN,NaN,NaN,trial_right,blueBox.png,blueBox.png,greenBox.png,al2_uncon.png,49,28,NaN,NaN,0.85,0.15,1,0,0,1,Stable,Stable,2.84,1.937,1.723,2.815,inexpert
142,1671283199369,17/12/2022 13:19:59,1671283199284,0,17/12/2022 13:19:59,109680,37,task-qrxs,repeat-7g8d#1->-repeat-38fk#1->-repeat-qjz7#1->-repeat-5t6i#1,26003425,BLIND,7678063,NaN,complete,NaN,NaN,computer,Desktop or Laptop,Mac OS 10.15.7,Safari 14.1.2,1920x1080,1920x1000,End of Day 1,SLS,90,A,Pass,End of Day 1,Pass,NaN,NaN,NaN,Pass,NaN,Pass,NaN,schedule_B,schedule_B,29,14,4,feedback_l,Zone7,timelimit_screen,1999,NaN,NaN,,NaN,0,1,0,NaN,NaN,1,NaN,NaN,trial_right,blueBox.png,blueBox.png,greenBox.png,al2_uncon.png,49,28,NaN,NaN,0.85,0.15,1,0,0,1,Stable,Stable,2.84,1.937,1.723,2.815,inexpert
143,1671283199476,17/12/2022 13:19:59,1671283199434,0,17/12/2022 13:19:59,109680,37,task-qrxs,repeat-7g8d#1->-repeat-38fk#1->-repeat-qjz7#1->-repeat-5t6i#1,26003425,BLIND,7678063,NaN,complete,NaN,NaN,computer,Desktop or Laptop,Mac OS 10.15.7,Safari 14.1.2,1920x1080,1920x1000,End of Day 1,SLS,90,A,Pass,End of Day 1,Pass,NaN,NaN,NaN,Pass,NaN,Pass,NaN,schedule_B,schedule_B,29,14,6,end,Zone1,timelimit_screen,150,NaN,NaN,,NaN,0,1,0,NaN,NaN,1,NaN,NaN,trial_right,blueBox.png,blueBox.png,greenBox.png,al2_uncon.png,49,28,NaN,NaN,0.85,0.15,1,0,0,1,Stable,Stable,2.84,1.937,1.723,2.815,inexpert
144,1671283200218,17/12/2022 13:20:00,1671283200148,0,17/12/2022 13:20:00,109680,37,task-qrxs,repeat-7g8d#1->-repeat-38fk#1->-repeat-qjz7#1->-repeat-5t6i#1,26003425,BLIND,7678063,NaN,complete,NaN,NaN,computer,Desktop or Laptop,Mac OS 10.15.7,Safari 14.1.2,1920x1080,1920x1000,End of Day 1,SLS,90,A,Pass,End of Day 1,Pass,NaN,NaN,NaN,Pass,NaN,Pass,NaN,schedule_B,schedule_B,30,15,1,Screen 1,Zone1,continue_button,699,NaN,NaN,,NaN,0,1,0,NaN,NaN,NaN,NaN,NaN,trial_right,blueBox.png,blueBox.png,greenBox.png,al2_uncon.png,50,29,NaN,NaN,0.85,0.15,1,0,0,1,Stable,Stable,2.941,1.71,0.664,1.336,inexpert
145,1671283201203,17/12/2022 13:20:01,1671283201135,0,17/12/2022 13:20:01,109680,37,task-qrxs,repeat-7g8d#1->-repeat-38fk#1->-repeat-qjz7#1->-repeat-5t6i#1,26003425,BLIND,7678063,NaN,complete,NaN,NaN,computer,Desktop or Laptop,Mac OS 10.15.7,Safari 14.1.2,1920x1080,1920x1000,End of Day 1,SLS,90,A,Pass,End of Day 1,Pass,NaN,NaN,NaN,Pass,NaN,Pass,NaN,schedule_B,schedule_B,30,15,2,individual,Zone4,timelimit_screen,1000,NaN,NaN,,NaN,0,1,0,NaN,NaN,1,NaN,NaN,trial_right,blueBox.png,blueBox.png,greenBox.png,al2_uncon.png,50,29,NaN,NaN,0.85,0.15,1,0,0,1,Stable,Stable,2.941,1.71,0.664,1.336,inexpert
146,1671283201907,17/12/2022 13:20:01,1671283201837,0,17/12/2022 13:20:01,109680,37,task-qrxs,repeat-7g8d#1->-repeat-38fk#1->-repeat-qjz7#1->-repeat-5t6i#1,26003425,BLIND,7678063,NaN,complete,NaN,NaN,computer,Desktop or Laptop,Mac OS 10.15.7,Safari 14.1.2,1920x1080,1920x1000,End of Day 1,SLS,90,A,Pass,End of Day 1,Pass,NaN,NaN,NaN,Pass,NaN,Pass,NaN,schedule_B,schedule_B,30,15,3,offer,Zone2,response_button_image,693,NaN,NaN,blueBox.png,1,1,0,0,NaN,NaN,NaN,NaN,NaN,trial_right,blueBox.png,blueBox.png,greenBox.png,al2_uncon.png,50,29,NaN,NaN,0.85,0.15,1,0,0,1,Stable,Stable,2.941,1.71,0.664,1.336,inexpert
147,1671283203894,17/12/2022 13:20:03,1671283203834,0,17/12/2022 13:20:03,109680,37,task-qrxs,repeat-7g8d#1->-repeat-38fk#1->-repeat-qjz7#1->-repeat-5t6i#1,26003425,BLIND,7678063,NaN,complete,NaN,NaN,computer,Desktop or Laptop,Mac OS 10.15.7,Safari 14.1.2,1920x1080,1920x1000,End of Day 1,SLS,90,A,Pass,End of Day 1,Pass,NaN,NaN,NaN,Pass,NaN,Pass,NaN,schedule_B,schedule_B,30,15,4,feedback_l,Zone7,timelimit_screen,2000,NaN,NaN,,NaN,0,1,0,NaN,NaN,1,NaN,NaN,trial_right,blueBox.png,blueBox.png,greenBox.png,al2_uncon.png,50,29,NaN,NaN,0.85,0.15,1,0,0,1,Stable,Stable,2.941,1.71,0.664,1.336,inexpert
148,1671283204026,17/12/2022 13:20:04,1671283203984,0,17/12/2022 13:20:03,109680,37,task-qrxs,repeat-7g8d#1->-repeat-38fk#1->-repeat-qjz7#1->-repeat-5t6i#1,26003425,BLIND,7678063,NaN,complete,NaN,NaN,computer,Desktop or Laptop,Mac OS 10.15.7,Safari 14.1.2,1920x1080,1920x1000,End of Day 1,SLS,90,A,Pass,End of Day 1,Pass,NaN,NaN,NaN,Pass,NaN,Pass,NaN,schedule_B,schedule_B,30,15,6,end,Zone1,timelimit_screen,150,NaN,NaN,,NaN,0,1,0,NaN,NaN,1,NaN,NaN,trial_right,blueBox.png,blueBox.png,greenBox.png,al2_uncon.png,50,29,NaN,NaN,0.85,0.15,1,0,0,1,Stable,Stable,2.941,1.71,0.664,1.336,inexpert
149,1671283204676,17/12/2022 13:20:04,1671283204615,0,17/12/2022 13:20:04,109680,37,task-qrxs,repeat-7g8d#1->-repeat-38fk#1->-repeat-qjz7#1->-repeat-5t6i#1,26003425,BLIND,7678063,NaN,complete,NaN,NaN,computer,Desktop or Laptop,Mac OS 10.15.7,Safari 14.1.2,1920x1080,1920x1000,End of Day 1,SLS,90,A,Pass,End of Day 1,Pass,NaN,NaN,NaN,Pass,NaN,Pass,NaN,schedule_B,schedule_B,31,15,1,Screen 1,Zone1,continue_button,614,NaN,NaN,,NaN,0,1,0,NaN,NaN,NaN,NaN,NaN,trial_left,blueBox.png,greenBox.png,blueBox.png,al2_uncon.png,61,30,NaN,NaN,0.85,0.15,1,0,0,0,Stable,Stable,2.79,1.735,0.601,2.345,inexpert
150,1671283205686,17/12/2022 13:20:05,1671283205601,0,17/12/2022 13:20:05,109680,37,task-qrxs,repeat-7g8d#1->-repeat-38fk#1->-repeat-qjz7#1->-repeat-5t6i#1,26003425,BLIND,7678063,NaN,complete,NaN,NaN,computer,Desktop or Laptop,Mac OS 10.15.7,Safari 14.1.2,1920x1080,1920x1000,End of Day 1,SLS,90,A,Pass,End of Day 1,Pass,NaN,NaN,NaN,Pass,NaN,Pass,NaN,schedule_B,schedule_B,31,15,2,individual,Zone4,timelimit_screen,1000,NaN,NaN,,NaN,0,1,0,NaN,NaN,1,NaN,NaN,trial_left,blueBox.png,greenBox.png,blueBox.png,al2_uncon.png,61,30,NaN,NaN,0.85,0.15,1,0,0,0,Stable,Stable,2.79,1.735,0.601,2.345,inexpert
151,1671283206283,17/12/2022 13:20:06,1671283206212,0,17/12/2022 13:20:06,109680,37,task-qrxs,repeat-7g8d#1->-repeat-38fk#1->-repeat-qjz7#1->-repeat-5t6i#1,26003425,BLIND,7678063,NaN,complete,NaN,NaN,computer,Desktop or Laptop,Mac OS 10.15.7,Safari 14.1.2,1920x1080,1920x1000,End of Day 1,SLS,90,A,Pass,End of Day 1,Pass,NaN,NaN,NaN,Pass,NaN,Pass,NaN,schedule_B,schedule_B,31,15,3,offer,bluebox,response_button_image,601,NaN,NaN,blueBox.png,1,1,0,0,NaN,NaN,NaN,NaN,NaN,trial_left,blueBox.png,greenBox.png,blueBox.png,al2_uncon.png,61,30,NaN,NaN,0.85,0.15,1,0,0,0,Stable,Stable,2.79,1.735,0.601,2.345,inexpert
152,1671283208263,17/12/2022 13:20:08,1671283208202,0,17/12/2022 13:20:08,109680,37,task-qrxs,repeat-7g8d#1->-repeat-38fk#1->-repeat-qjz7#1->-repeat-5t6i#1,26003425,BLIND,7678063,NaN,complete,NaN,NaN,computer,Desktop or Laptop,Mac OS 10.15.7,Safari 14.1.2,1920x1080,1920x1000,End of Day 1,SLS,90,A,Pass,End of Day 1,Pass,NaN,NaN,NaN,Pass,NaN,Pass,NaN,schedule_B,schedule_B,31,15,5,feedback_r,Zone7,timelimit_screen,2000,NaN,NaN,,NaN,0,1,0,NaN,NaN,1,NaN,NaN,trial_left,blueBox.png,greenBox.png,blueBox.png,al2_uncon.png,61,30,NaN,NaN,0.85,0.15,1,0,0,0,Stable,Stable,2.79,1.735,0.601,2.345,inexpert
153,1671283208405,17/12/2022 13:20:08,1671283208351,0,17/12/2022 13:20:08,109680,37,task-qrxs,repeat-7g8d#1->-repeat-38fk#1->-repeat-qjz7#1->-repeat-5t6i#1,26003425,BLIND,7678063,NaN,complete,NaN,NaN,computer,Desktop or Laptop,Mac OS 10.15.7,Safari 14.1.2,1920x1080,1920x1000,End of Day 1,SLS,90,A,Pass,End of Day 1,Pass,NaN,NaN,NaN,Pass,NaN,Pass,NaN,schedule_B,schedule_B,31,15,6,end,Zone1,timelimit_screen,150,NaN,NaN,,NaN,0,1,0,NaN,NaN,1,NaN,NaN,trial_left,blueBox.png,greenBox.png,blueBox.png,al2_uncon.png,61,30,NaN,NaN,0.85,0.15,1,0,0,0,Stable,Stable,2.79,1.735,0.601,2.345,inexpert
154,1671283208981,17/12/2022 13:20:08,1671283208901,0,17/12/2022 13:20:08,109680,37,task-qrxs,repeat-7g8d#1->-repeat-38fk#1->-repeat-qjz7#1->-repeat-5t6i#1,26003425,BLIND,7678063,NaN,complete,NaN,NaN,computer,Desktop or Laptop,Mac OS 10.15.7,Safari 14.1.2,1920x1080,1920x1000,End of Day 1,SLS,90,A,Pass,End of Day 1,Pass,NaN,NaN,NaN,Pass,NaN,Pass,NaN,schedule_B,schedule_B,32,16,1,Screen 1,Zone1,continue_button,532,NaN,NaN,,NaN,0,1,0,NaN,NaN,NaN,NaN,NaN,trial_right,blueBox.png,greenBox.png,blueBox.png,al2_uncon.png,62,31,NaN,NaN,0.85,0.85,1,1,1,0,Volatile,Volatile,2.538,1.672,1.143,1.555,inexpert
155,1671283209984,17/12/2022 13:20:09,1671283209885,0,17/12/2022 13:20:09,109680,37,task-qrxs,repeat-7g8d#1->-repeat-38fk#1->-repeat-qjz7#1->-repeat-5t6i#1,26003425,BLIND,7678063,NaN,complete,NaN,NaN,computer,Desktop or Laptop,Mac OS 10.15.7,Safari 14.1.2,1920x1080,1920x1000,End of Day 1,SLS,90,A,Pass,End of Day 1,Pass,NaN,NaN,NaN,Pass,NaN,Pass,NaN,schedule_B,schedule_B,32,16,2,individual,Zone4,timelimit_screen,1001,NaN,NaN,,NaN,0,1,0,NaN,NaN,1,NaN,NaN,trial_right,blueBox.png,greenBox.png,blueBox.png,al2_uncon.png,62,31,NaN,NaN,0.85,0.85,1,1,1,0,Volatile,Volatile,2.538,1.672,1.143,1.555,inexpert
156,1671283210622,17/12/2022 13:20:10,1671283210577,0,17/12/2022 13:20:10,109680,37,task-qrxs,repeat-7g8d#1->-repeat-38fk#1->-repeat-qjz7#1->-repeat-5t6i#1,26003425,BLIND,7678063,NaN,complete,NaN,NaN,computer,Desktop or Laptop,Mac OS 10.15.7,Safari 14.1.2,1920x1080,1920x1000,End of Day 1,SLS,90,A,Pass,End of Day 1,Pass,NaN,NaN,NaN,Pass,NaN,Pass,NaN,schedule_B,schedule_B,32,16,3,offer,Zone3,response_button_image,680.999999999971,NaN,NaN,blueBox.png,1,1,0,0,NaN,NaN,NaN,NaN,NaN,trial_right,blueBox.png,greenBox.png,blueBox.png,al2_uncon.png,62,31,NaN,NaN,0.85,0.85,1,1,1,0,Volatile,Volatile,2.538,1.672,1.143,1.555,inexpert
157,1671283212629,17/12/2022 13:20:12,1671283212568,0,17/12/2022 13:20:12,109680,37,task-qrxs,repeat-7g8d#1->-repeat-38fk#1->-repeat-qjz7#1->-repeat-5t6i#1,26003425,BLIND,7678063,NaN,complete,NaN,NaN,computer,Desktop or Laptop,Mac OS 10.15.7,Safari 14.1.2,1920x1080,1920x1000,End of Day 1,SLS,90,A,Pass,End of Day 1,Pass,NaN,NaN,NaN,Pass,NaN,Pass,NaN,schedule_B,schedule_B,32,16,5,feedback_r,Zone7,timelimit_screen,2000,NaN,NaN,,NaN,0,1,0,NaN,NaN,1,NaN,NaN,trial_right,blueBox.png,greenBox.png,blueBox.png,al2_uncon.png,62,31,NaN,NaN,0.85,0.85,1,1,1,0,Volatile,Volatile,2.538,1.672,1.143,1.555,inexpert
158,1671283212760,17/12/2022 13:20:12,1671283212718,0,17/12/2022 13:20:12,109680,37,task-qrxs,repeat-7g8d#1->-repeat-38fk#1->-repeat-qjz7#1->-repeat-5t6i#1,26003425,BLIND,7678063,NaN,complete,NaN,NaN,computer,Desktop or Laptop,Mac OS 10.15.7,Safari 14.1.2,1920x1080,1920x1000,End of Day 1,SLS,90,A,Pass,End of Day 1,Pass,NaN,NaN,NaN,Pass,NaN,Pass,NaN,schedule_B,schedule_B,32,16,6,end,Zone1,timelimit_screen,150,NaN,NaN,,NaN,0,1,0,NaN,NaN,1,NaN,NaN,trial_right,blueBox.png,greenBox.png,blueBox.png,al2_uncon.png,62,31,NaN,NaN,0.85,0.85,1,1,1,0,Volatile,Volatile,2.538,1.672,1.143,1.555,inexpert
159,1671283213337,17/12/2022 13:20:13,1671283213278,0,17/12/2022 13:20:13,109680,37,task-qrxs,repeat-7g8d#1->-repeat-38fk#1->-repeat-qjz7#1->-repeat-5t6i#1,26003425,BLIND,7678063,NaN,complete,NaN,NaN,computer,Desktop or Laptop,Mac OS 10.15.7,Safari 14.1.2,1920x1080,1920x1000,End of Day 1,SLS,90,A,Pass,End of Day 1,Pass,NaN,NaN,NaN,Pass,NaN,Pass,NaN,schedule_B,schedule_B,33,16,1,Screen 1,Zone1,continue_button,544,NaN,NaN,,NaN,0,1,0,NaN,NaN,NaN,NaN,NaN,trial_left,blueBox.png,greenBox.png,blueBox.png,al2_uncon.png,63,32,NaN,NaN,0.85,0.85,1,0,0,0,Volatile,Volatile,2.739,1.13,0.815,1.387,inexpert
160,1671283214328,17/12/2022 13:20:14,1671283214269,0,17/12/2022 13:20:14,109680,37,task-qrxs,repeat-7g8d#1->-repeat-38fk#1->-repeat-qjz7#1->-repeat-5t6i#1,26003425,BLIND,7678063,NaN,complete,NaN,NaN,computer,Desktop or Laptop,Mac OS 10.15.7,Safari 14.1.2,1920x1080,1920x1000,End of Day 1,SLS,90,A,Pass,End of Day 1,Pass,NaN,NaN,NaN,Pass,NaN,Pass,NaN,schedule_B,schedule_B,33,16,2,individual,Zone4,timelimit_screen,1001,NaN,NaN,,NaN,0,1,0,NaN,NaN,1,NaN,NaN,trial_left,blueBox.png,greenBox.png,blueBox.png,al2_uncon.png,63,32,NaN,NaN,0.85,0.85,1,0,0,0,Volatile,Volatile,2.739,1.13,0.815,1.387,inexpert
161,1671283214868,17/12/2022 13:20:14,1671283214819,0,17/12/2022 13:20:14,109680,37,task-qrxs,repeat-7g8d#1->-repeat-38fk#1->-repeat-qjz7#1->-repeat-5t6i#1,26003425,BLIND,7678063,NaN,complete,NaN,NaN,computer,Desktop or Laptop,Mac OS 10.15.7,Safari 14.1.2,1920x1080,1920x1000,End of Day 1,SLS,90,A,Pass,End of Day 1,Pass,NaN,NaN,NaN,Pass,NaN,Pass,NaN,schedule_B,schedule_B,33,16,3,offer,bluebox,response_button_image,539.000000000029,NaN,NaN,blueBox.png,1,1,0,0,NaN,NaN,NaN,NaN,NaN,trial_left,blueBox.png,greenBox.png,blueBox.png,al2_uncon.png,63,32,NaN,NaN,0.85,0.85,1,0,0,0,Volatile,Volatile,2.739,1.13,0.815,1.387,inexpert
162,1671283216883,17/12/2022 13:20:16,1671283216819,0,17/12/2022 13:20:16,109680,37,task-qrxs,repeat-7g8d#1->-repeat-38fk#1->-repeat-qjz7#1->-repeat-5t6i#1,26003425,BLIND,7678063,NaN,complete,NaN,NaN,computer,Desktop or Laptop,Mac OS 10.15.7,Safari 14.1.2,1920x1080,1920x1000,End of Day 1,SLS,90,A,Pass,End of Day 1,Pass,NaN,NaN,NaN,Pass,NaN,Pass,NaN,schedule_B,schedule_B,33,16,5,feedback_r,Zone7,timelimit_screen,2001,NaN,NaN,,NaN,0,1,0,NaN,NaN,1,NaN,NaN,trial_left,blueBox.png,greenBox.png,blueBox.png,al2_uncon.png,63,32,NaN,NaN,0.85,0.85,1,0,0,0,Volatile,Volatile,2.739,1.13,0.815,1.387,inexpert
163,1671283217023,17/12/2022 13:20:17,1671283216968,0,17/12/2022 13:20:16,109680,37,task-qrxs,repeat-7g8d#1->-repeat-38fk#1->-repeat-qjz7#1->-repeat-5t6i#1,26003425,BLIND,7678063,NaN,complete,NaN,NaN,computer,Desktop or Laptop,Mac OS 10.15.7,Safari 14.1.2,1920x1080,1920x1000,End of Day 1,SLS,90,A,Pass,End of Day 1,Pass,NaN,NaN,NaN,Pass,NaN,Pass,NaN,schedule_B,schedule_B,33,16,6,end,Zone1,timelimit_screen,150,NaN,NaN,,NaN,0,1,0,NaN,NaN,1,NaN,NaN,trial_left,blueBox.png,greenBox.png,blueBox.png,al2_uncon.png,63,32,NaN,NaN,0.85,0.85,1,0,0,0,Volatile,Volatile,2.739,1.13,0.815,1.387,inexpert
164,1671283218016,17/12/2022 13:20:18,1671283217969,0,17/12/2022 13:20:17,109680,37,task-qrxs,repeat-7g8d#1->-repeat-38fk#1->-repeat-qjz7#1->-repeat-5t6i#1,26003425,BLIND,7678063,NaN,complete,NaN,NaN,computer,Desktop or Laptop,Mac OS 10.15.7,Safari 14.1.2,1920x1080,1920x1000,End of Day 1,SLS,90,A,Pass,End of Day 1,Pass,NaN,NaN,NaN,Pass,NaN,Pass,NaN,schedule_B,schedule_B,34,17,1,Screen 1,Zone1,continue_button,983,NaN,NaN,,NaN,0,1,0,NaN,NaN,NaN,NaN,NaN,trial_left,blueBox.png,blueBox.png,greenBox.png,al2_uncon.png,64,33,NaN,NaN,0.85,0.85,1,1,1,1,Volatile,Volatile,3.672,0.828,0.513,2.059,inexpert
165,1671283219013,17/12/2022 13:20:19,1671283218952,0,17/12/2022 13:20:18,109680,37,task-qrxs,repeat-7g8d#1->-repeat-38fk#1->-repeat-qjz7#1->-repeat-5t6i#1,26003425,BLIND,7678063,NaN,complete,NaN,NaN,computer,Desktop or Laptop,Mac OS 10.15.7,Safari 14.1.2,1920x1080,1920x1000,End of Day 1,SLS,90,A,Pass,End of Day 1,Pass,NaN,NaN,NaN,Pass,NaN,Pass,NaN,schedule_B,schedule_B,34,17,2,individual,Zone4,timelimit_screen,1001,NaN,NaN,,NaN,0,1,0,NaN,NaN,1,NaN,NaN,trial_left,blueBox.png,blueBox.png,greenBox.png,al2_uncon.png,64,33,NaN,NaN,0.85,0.85,1,1,1,1,Volatile,Volatile,3.672,0.828,0.513,2.059,inexpert
