EventIndex,UTCTimestamp,UTCDate,LocalTimestamp,LocalTimezone,LocalDate,ExperimentID,ExperimentVersion,TreeNodeKey,RepeatKey,ScheduleID,ParticipantPublicID,ParticipantPrivateID,ParticipantStartingGroup,ParticipantStatus,ParticipantCompletionCode,ParticipantExternalSessionID,ParticipantDeviceType,ParticipantDevice,ParticipantOS,ParticipantBrowser,ParticipantMonitorSize,ParticipantViewportSize,Checkpoint,TaskName,TaskVersion,randomiser_6z9f,branch_kxy7,checkpoint_tqwf,branch_rtog,branch_7dgx,checkpoint_mqen,branch_yx2c,branch_3n8o,branch_f1s6,branch_x6l7,branch_21hs,Spreadsheet,SpreadsheetName,SpreadsheetRow,TrialNumber,ScreenNumber,ScreenName,ZoneName,ZoneType,ReactionTime,ReactionOnset,ResponseType,Response,Attempt,Correct,Incorrect,Dishonest,XCoordinate,YCoordinate,TimedOut,randomise_blocks,randomise_trials,display,ANSWER,left_button,right_button,advice,orderno,trialno,ShowProgressBar,image,prob_blue_corr,prob_group_corr,corr_ans,group_corr,group_choice,blue_pos,indiv_vol,soc_vol,ITI_1,ITI_2,ITI_3,ITI_4,condition
1,1671235199710,16/12/2022 23:59:59,1671235199433,0,16/12/2022 23:59:59,109680,37,task-xjip,repeat-7g8d#1->-repeat-38fk#1,26000136,BLIND,7679970,NaN,complete,NaN,NaN,computer,Desktop or Laptop,Windows 10,Chrome 108.0.0.0,1280x720,1280x720,End of Day 1,SLS,90,A,Pass,End of Day 1,Pass,NaN,NaN,NaN,Pass,NaN,Pass,NaN,schedule_A,,NaN,NaN,NaN,,,,NaN,NaN,NaN,,NaN,0,1,0,NaN,NaN,NaN,NaN,NaN,,,,,,NaN,NaN,NaN,NaN,NaN,NaN,NaN,NaN,NaN,NaN,,,NaN,NaN,NaN,NaN,
2,1671235202166,17/12/2022 00:00:02,1671235201930,0,17/12/2022 00:00:01,109680,37,task-xjip,repeat-7g8d#1->-repeat-38fk#1,26000136,BLIND,7679970,NaN,complete,NaN,NaN,computer,Desktop or Laptop,Windows 10,Chrome 108.0.0.0,1280x720,1280x720,End of Day 1,SLS,90,A,Pass,End of Day 1,Pass,NaN,NaN,NaN,Pass,NaN,Pass,NaN,schedule_A,schedule_A,1,1,1,Screen 1,Zone1,continue_button,2132.79999999702,NaN,NaN,,NaN,0,1,0,NaN,NaN,NaN,NaN,NaN,getReady,,,,,1,NaN,NaN,NaN,NaN,NaN,NaN,NaN,NaN,NaN,,,NaN,NaN,NaN,NaN,
3,1671235203825,17/12/2022 00:00:03,1671235203597,0,17/12/2022 00:00:03,109680,37,task-xjip,repeat-7g8d#1->-repeat-38fk#1,26000136,BLIND,7679970,NaN,complete,NaN,NaN,computer,Desktop or Laptop,Windows 10,Chrome 108.0.0.0,1280x720,1280x720,End of Day 1,SLS,90,A,Pass,End of Day 1,Pass,NaN,NaN,NaN,Pass,NaN,Pass,NaN,schedule_A,schedule_A,1,1,2,Screen 2,Zone1,continue_button,1661,NaN,NaN,,NaN,0,1,0,NaN,NaN,NaN,NaN,NaN,getReady,,,,,1,NaN,NaN,NaN,NaN,NaN,NaN,NaN,NaN,NaN,,,NaN,NaN,NaN,NaN,
4,1671235206571,17/12/2022 00:00:06,1671235206354,0,17/12/2022 00:00:06,109680,37,task-xjip,repeat-7g8d#1->-repeat-38fk#1,26000136,BLIND,7679970,NaN,complete,NaN,NaN,computer,Desktop or Laptop,Windows 10,Chrome 108.0.0.0,1280x720,1280x720,End of Day 1,SLS,90,A,Pass,End of Day 1,Pass,NaN,NaN,NaN,Pass,NaN,Pass,NaN,schedule_A,schedule_A,2,1,1,Screen 1,Zone1,continue_button,2736.5,NaN,NaN,,NaN,0,1,0,NaN,NaN,NaN,NaN,NaN,trial_right,redBox.png,yellowBox.png,redBox.png,al1_con.png,2,1,NaN,NaN,0.85,0.85,1,1,1,0,Volatile,Stable,3.471,0.525,1.66,2.529,expert
5,1671235207557,17/12/2022 00:00:07,1671235207344,0,17/12/2022 00:00:07,109680,37,task-xjip,repeat-7g8d#1->-repeat-38fk#1,26000136,BLIND,7679970,NaN,complete,NaN,NaN,computer,Desktop or Laptop,Windows 10,Chrome 108.0.0.0,1280x720,1280x720,End of Day 1,SLS,90,A,Pass,End of Day 1,Pass,NaN,NaN,NaN,Pass,NaN,Pass,NaN,schedule_A,schedule_A,2,1,2,individual,Zone4,timelimit_screen,999.862,NaN,NaN,,NaN,0,1,0,NaN,NaN,1,NaN,NaN,trial_right,redBox.png,yellowBox.png,redBox.png,al1_con.png,2,1,NaN,NaN,0.85,0.85,1,1,1,0,Volatile,Stable,3.471,0.525,1.66,2.529,expert
6,1671235209260,17/12/2022 00:00:09,1671235208955,0,17/12/2022 00:00:08,109680,37,task-xjip,repeat-7g8d#1->-repeat-38fk#1,26000136,BLIND,7679970,NaN,complete,NaN,NaN,computer,Desktop or Laptop,Windows 10,Chrome 108.0.0.0,1280x720,1280x720,End of Day 1,SLS,90,A,Pass,End of Day 1,Pass,NaN,NaN,NaN,Pass,NaN,Pass,NaN,schedule_A,schedule_A,2,1,3,offer,Zone3,response_button_image,1601.09999999404,NaN,NaN,redBox.png,1,1,0,0,NaN,NaN,NaN,NaN,NaN,trial_right,redBox.png,yellowBox.png,redBox.png,al1_con.png,2,1,NaN,NaN,0.85,0.85,1,1,1,0,Volatile,Stable,3.471,0.525,1.66,2.529,expert
7,1671235211158,17/12/2022 00:00:11,1671235210944,0,17/12/2022 00:00:10,109680,37,task-xjip,repeat-7g8d#1->-repeat-38fk#1,26000136,BLIND,7679970,NaN,complete,NaN,NaN,computer,Desktop or Laptop,Windows 10,Chrome 108.0.0.0,1280x720,1280x720,End of Day 1,SLS,90,A,Pass,End of Day 1,Pass,NaN,NaN,NaN,Pass,NaN,Pass,NaN,schedule_A,schedule_A,2,1,5,feedback_r,Zone7,timelimit_screen,1999.717,NaN,NaN,,NaN,0,1,0,NaN,NaN,1,NaN,NaN,trial_right,redBox.png,yellowBox.png,redBox.png,al1_con.png,2,1,NaN,NaN,0.85,0.85,1,1,1,0,Volatile,Stable,3.471,0.525,1.66,2.529,expert
8,1671235211302,17/12/2022 00:00:11,1671235211094,0,17/12/2022 00:00:11,109680,37,task-xjip,repeat-7g8d#1->-repeat-38fk#1,26000136,BLIND,7679970,NaN,complete,NaN,NaN,computer,Desktop or Laptop,Windows 10,Chrome 108.0.0.0,1280x720,1280x720,End of Day 1,SLS,90,A,Pass,End of Day 1,Pass,NaN,NaN,NaN,Pass,NaN,Pass,NaN,schedule_A,schedule_A,2,1,6,end,Zone1,timelimit_screen,149.991,NaN,NaN,,NaN,0,1,0,NaN,NaN,1,NaN,NaN,trial_right,redBox.png,yellowBox.png,redBox.png,al1_con.png,2,1,NaN,NaN,0.85,0.85,1,1,1,0,Volatile,Stable,3.471,0.525,1.66,2.529,expert
9,1671235213049,17/12/2022 00:00:13,1671235212842,0,17/12/2022 00:00:12,109680,37,task-xjip,repeat-7g8d#1->-repeat-38fk#1,26000136,BLIND,7679970,NaN,complete,NaN,NaN,computer,Desktop or Laptop,Windows 10,Chrome 108.0.0.0,1280x720,1280x720,End of Day 1,SLS,90,A,Pass,End of Day 1,Pass,NaN,NaN,NaN,Pass,NaN,Pass,NaN,schedule_A,schedule_A,3,1,1,Screen 1,Zone1,continue_button,1729.59999999404,NaN,NaN,,NaN,0,1,0,NaN,NaN,NaN,NaN,NaN,trial_left,redBox.png,redBox.png,yellowBox.png,al1_con.png,3,2,NaN,NaN,0.85,0.85,1,1,1,1,Volatile,Stable,1.782,1.168,1.168,2.462,expert
10,1671235214035,17/12/2022 00:00:14,1671235213827,0,17/12/2022 00:00:13,109680,37,task-xjip,repeat-7g8d#1->-repeat-38fk#1,26000136,BLIND,7679970,NaN,complete,NaN,NaN,computer,Desktop or Laptop,Windows 10,Chrome 108.0.0.0,1280x720,1280x720,End of Day 1,SLS,90,A,Pass,End of Day 1,Pass,NaN,NaN,NaN,Pass,NaN,Pass,NaN,schedule_A,schedule_A,3,1,2,individual,Zone4,timelimit_screen,999.856,NaN,NaN,,NaN,0,1,0,NaN,NaN,1,NaN,NaN,trial_left,redBox.png,redBox.png,yellowBox.png,al1_con.png,3,2,NaN,NaN,0.85,0.85,1,1,1,1,Volatile,Stable,1.782,1.168,1.168,2.462,expert
11,1671235215511,17/12/2022 00:00:15,1671235215311,0,17/12/2022 00:00:15,109680,37,task-xjip,repeat-7g8d#1->-repeat-38fk#1,26000136,BLIND,7679970,NaN,complete,NaN,NaN,computer,Desktop or Laptop,Windows 10,Chrome 108.0.0.0,1280x720,1280x720,End of Day 1,SLS,90,A,Pass,End of Day 1,Pass,NaN,NaN,NaN,Pass,NaN,Pass,NaN,schedule_A,schedule_A,3,1,3,offer,Zone2,response_button_image,1475.80000001192,NaN,NaN,redBox.png,1,1,0,0,NaN,NaN,NaN,NaN,NaN,trial_left,redBox.png,redBox.png,yellowBox.png,al1_con.png,3,2,NaN,NaN,0.85,0.85,1,1,1,1,Volatile,Stable,1.782,1.168,1.168,2.462,expert
12,1671235217522,17/12/2022 00:00:17,1671235217309,0,17/12/2022 00:00:17,109680,37,task-xjip,repeat-7g8d#1->-repeat-38fk#1,26000136,BLIND,7679970,NaN,complete,NaN,NaN,computer,Desktop or Laptop,Windows 10,Chrome 108.0.0.0,1280x720,1280x720,End of Day 1,SLS,90,A,Pass,End of Day 1,Pass,NaN,NaN,NaN,Pass,NaN,Pass,NaN,schedule_A,schedule_A,3,1,4,feedback_l,Zone7,timelimit_screen,1999.723,NaN,NaN,,NaN,0,1,0,NaN,NaN,1,NaN,NaN,trial_left,redBox.png,redBox.png,yellowBox.png,al1_con.png,3,2,NaN,NaN,0.85,0.85,1,1,1,1,Volatile,Stable,1.782,1.168,1.168,2.462,expert
13,1671235217653,17/12/2022 00:00:17,1671235217459,0,17/12/2022 00:00:17,109680,37,task-xjip,repeat-7g8d#1->-repeat-38fk#1,26000136,BLIND,7679970,NaN,complete,NaN,NaN,computer,Desktop or Laptop,Windows 10,Chrome 108.0.0.0,1280x720,1280x720,End of Day 1,SLS,90,A,Pass,End of Day 1,Pass,NaN,NaN,NaN,Pass,NaN,Pass,NaN,schedule_A,schedule_A,3,1,6,end,Zone1,timelimit_screen,149.977999999999,NaN,NaN,,NaN,0,1,0,NaN,NaN,1,NaN,NaN,trial_left,redBox.png,redBox.png,yellowBox.png,al1_con.png,3,2,NaN,NaN,0.85,0.85,1,1,1,1,Volatile,Stable,1.782,1.168,1.168,2.462,expert
14,1671235218968,17/12/2022 00:00:18,1671235218661,0,17/12/2022 00:00:18,109680,37,task-xjip,repeat-7g8d#1->-repeat-38fk#1,26000136,BLIND,7679970,NaN,complete,NaN,NaN,computer,Desktop or Laptop,Windows 10,Chrome 108.0.0.0,1280x720,1280x720,End of Day 1,SLS,90,A,Pass,End of Day 1,Pass,NaN,NaN,NaN,Pass,NaN,Pass,NaN,schedule_A,schedule_A,4,2,1,Screen 1,Zone1,continue_button,1184.59999999404,NaN,NaN,,NaN,0,1,0,NaN,NaN,NaN,NaN,NaN,trial_right,redBox.png,yellowBox.png,redBox.png,al1_con.png,4,3,NaN,NaN,0.85,0.85,1,1,1,0,Volatile,Stable,1.983,1.181,0.538,1.588,expert
15,1671235219874,17/12/2022 00:00:19,1671235219659,0,17/12/2022 00:00:19,109680,37,task-xjip,repeat-7g8d#1->-repeat-38fk#1,26000136,BLIND,7679970,NaN,complete,NaN,NaN,computer,Desktop or Laptop,Windows 10,Chrome 108.0.0.0,1280x720,1280x720,End of Day 1,SLS,90,A,Pass,End of Day 1,Pass,NaN,NaN,NaN,Pass,NaN,Pass,NaN,schedule_A,schedule_A,4,2,2,individual,Zone4,timelimit_screen,999.913,NaN,NaN,,NaN,0,1,0,NaN,NaN,1,NaN,NaN,trial_right,redBox.png,yellowBox.png,redBox.png,al1_con.png,4,3,NaN,NaN,0.85,0.85,1,1,1,0,Volatile,Stable,1.983,1.181,0.538,1.588,expert
16,1671235223632,17/12/2022 00:00:23,1671235223416,0,17/12/2022 00:00:23,109680,37,task-xjip,repeat-7g8d#1->-repeat-38fk#1,26000136,BLIND,7679970,NaN,complete,NaN,NaN,computer,Desktop or Laptop,Windows 10,Chrome 108.0.0.0,1280x720,1280x720,End of Day 1,SLS,90,A,Pass,End of Day 1,Pass,NaN,NaN,NaN,Pass,NaN,Pass,NaN,schedule_A,schedule_A,4,2,3,offer,Zone3,response_button_image,3746.20000000298,NaN,NaN,redBox.png,1,1,0,0,NaN,NaN,NaN,NaN,NaN,trial_right,redBox.png,yellowBox.png,redBox.png,al1_con.png,4,3,NaN,NaN,0.85,0.85,1,1,1,0,Volatile,Stable,1.983,1.181,0.538,1.588,expert
17,1671235225619,17/12/2022 00:00:25,1671235225408,0,17/12/2022 00:00:25,109680,37,task-xjip,repeat-7g8d#1->-repeat-38fk#1,26000136,BLIND,7679970,NaN,complete,NaN,NaN,computer,Desktop or Laptop,Windows 10,Chrome 108.0.0.0,1280x720,1280x720,End of Day 1,SLS,90,A,Pass,End of Day 1,Pass,NaN,NaN,NaN,Pass,NaN,Pass,NaN,schedule_A,schedule_A,4,2,5,feedback_r,Zone7,timelimit_screen,1999.738,NaN,NaN,,NaN,0,1,0,NaN,NaN,1,NaN,NaN,trial_right,redBox.png,yellowBox.png,redBox.png,al1_con.png,4,3,NaN,NaN,0.85,0.85,1,1,1,0,Volatile,Stable,1.983,1.181,0.538,1.588,expert
18,1671235225767,17/12/2022 00:00:25,1671235225558,0,17/12/2022 00:00:25,109680,37,task-xjip,repeat-7g8d#1->-repeat-38fk#1,26000136,BLIND,7679970,NaN,complete,NaN,NaN,computer,Desktop or Laptop,Windows 10,Chrome 108.0.0.0,1280x720,1280x720,End of Day 1,SLS,90,A,Pass,End of Day 1,Pass,NaN,NaN,NaN,Pass,NaN,Pass,NaN,schedule_A,schedule_A,4,2,6,end,Zone1,timelimit_screen,149.959999999999,NaN,NaN,,NaN,0,1,0,NaN,NaN,1,NaN,NaN,trial_right,redBox.png,yellowBox.png,redBox.png,al1_con.png,4,3,NaN,NaN,0.85,0.85,1,1,1,0,Volatile,Stable,1.983,1.181,0.538,1.588,expert
19,1671235226991,17/12/2022 00:00:26,1671235226787,0,17/12/2022 00:00:26,109680,37,task-xjip,repeat-7g8d#1->-repeat-38fk#1,26000136,BLIND,7679970,NaN,complete,NaN,NaN,computer,Desktop or Laptop,Windows 10,Chrome 108.0.0.0,1280x720,1280x720,End of Day 1,SLS,90,A,Pass,End of Day 1,Pass,NaN,NaN,NaN,Pass,NaN,Pass,NaN,schedule_A,schedule_A,5,3,1,Screen 1,Zone1,continue_button,1211.20000000298,NaN,NaN,,NaN,0,1,0,NaN,NaN,NaN,NaN,NaN,trial_right,redBox.png,yellowBox.png,redBox.png,al1_con.png,5,4,NaN,NaN,0.85,0.85,1,1,1,0,Volatile,Stable,1.529,0.891,1.004,1,expert
20,1671235227986,17/12/2022 00:00:27,1671235227775,0,17/12/2022 00:00:27,109680,37,task-xjip,repeat-7g8d#1->-repeat-38fk#1,26000136,BLIND,7679970,NaN,complete,NaN,NaN,computer,Desktop or Laptop,Windows 10,Chrome 108.0.0.0,1280x720,1280x720,End of Day 1,SLS,90,A,Pass,End of Day 1,Pass,NaN,NaN,NaN,Pass,NaN,Pass,NaN,schedule_A,schedule_A,5,3,2,individual,Zone4,timelimit_screen,999.864000000001,NaN,NaN,,NaN,0,1,0,NaN,NaN,1,NaN,NaN,trial_right,redBox.png,yellowBox.png,redBox.png,al1_con.png,5,4,NaN,NaN,0.85,0.85,1,1,1,0,Volatile,Stable,1.529,0.891,1.004,1,expert
21,1671235228831,17/12/2022 00:00:28,1671235228553,0,17/12/2022 00:00:28,109680,37,task-xjip,repeat-7g8d#1->-repeat-38fk#1,26000136,BLIND,7679970,NaN,complete,NaN,NaN,computer,Desktop or Laptop,Windows 10,Chrome 108.0.0.0,1280x720,1280x720,End of Day 1,SLS,90,A,Pass,End of Day 1,Pass,NaN,NaN,NaN,Pass,NaN,Pass,NaN,schedule_A,schedule_A,5,3,3,offer,Zone2,response_button_image,769.70000000298,NaN,NaN,yellowBox.png,1,0,1,0,NaN,NaN,NaN,NaN,NaN,trial_right,redBox.png,yellowBox.png,redBox.png,al1_con.png,5,4,NaN,NaN,0.85,0.85,1,1,1,0,Volatile,Stable,1.529,0.891,1.004,1,expert
22,1671235230749,17/12/2022 00:00:30,1671235230541,0,17/12/2022 00:00:30,109680,37,task-xjip,repeat-7g8d#1->-repeat-38fk#1,26000136,BLIND,7679970,NaN,complete,NaN,NaN,computer,Desktop or Laptop,Windows 10,Chrome 108.0.0.0,1280x720,1280x720,End of Day 1,SLS,90,A,Pass,End of Day 1,Pass,NaN,NaN,NaN,Pass,NaN,Pass,NaN,schedule_A,schedule_A,5,3,4,feedback_l,Zone7,timelimit_screen,1999.716,NaN,NaN,,NaN,0,1,0,NaN,NaN,1,NaN,NaN,trial_right,redBox.png,yellowBox.png,redBox.png,al1_con.png,5,4,NaN,NaN,0.85,0.85,1,1,1,0,Volatile,Stable,1.529,0.891,1.004,1,expert
23,1671235230884,17/12/2022 00:00:30,1671235230692,0,17/12/2022 00:00:30,109680,37,task-xjip,repeat-7g8d#1->-repeat-38fk#1,26000136,BLIND,7679970,NaN,complete,NaN,NaN,computer,Desktop or Laptop,Windows 10,Chrome 108.0.0.0,1280x720,1280x720,End of Day 1,SLS,90,A,Pass,End of Day 1,Pass,NaN,NaN,NaN,Pass,NaN,Pass,NaN,schedule_A,schedule_A,5,3,6,end,Zone1,timelimit_screen,150.119000000002,NaN,NaN,,NaN,0,1,0,NaN,NaN,1,NaN,NaN,trial_right,redBox.png,yellowBox.png,redBox.png,al1_con.png,5,4,NaN,NaN,0.85,0.85,1,1,1,0,Volatile,Stable,1.529,0.891,1.004,1,expert
24,1671235232256,17/12/2022 00:00:32,1671235232047,0,17/12/2022 00:00:32,109680,37,task-xjip,repeat-7g8d#1->-repeat-38fk#1,26000136,BLIND,7679970,NaN,complete,NaN,NaN,computer,Desktop or Laptop,Windows 10,Chrome 108.0.0.0,1280x720,1280x720,End of Day 1,SLS,90,A,Pass,End of Day 1,Pass,NaN,NaN,NaN,Pass,NaN,Pass,NaN,schedule_A,schedule_A,6,2,1,Screen 1,Zone1,continue_button,1336.20000000298,NaN,NaN,,NaN,0,1,0,NaN,NaN,NaN,NaN,NaN,trial_left,redBox.png,redBox.png,yellowBox.png,al1_con.png,6,5,NaN,NaN,0.85,0.85,1,1,1,1,Volatile,Stable,1.832,1.118,0.752,1.79,expert
25,1671235233237,17/12/2022 00:00:33,1671235233041,0,17/12/2022 00:00:33,109680,37,task-xjip,repeat-7g8d#1->-repeat-38fk#1,26000136,BLIND,7679970,NaN,complete,NaN,NaN,computer,Desktop or Laptop,Windows 10,Chrome 108.0.0.0,1280x720,1280x720,End of Day 1,SLS,90,A,Pass,End of Day 1,Pass,NaN,NaN,NaN,Pass,NaN,Pass,NaN,schedule_A,schedule_A,6,2,2,individual,Zone4,timelimit_screen,999.866000000002,NaN,NaN,,NaN,0,1,0,NaN,NaN,1,NaN,NaN,trial_left,redBox.png,redBox.png,yellowBox.png,al1_con.png,6,5,NaN,NaN,0.85,0.85,1,1,1,1,Volatile,Stable,1.832,1.118,0.752,1.79,expert
26,1671235234269,17/12/2022 00:00:34,1671235234061,0,17/12/2022 00:00:34,109680,37,task-xjip,repeat-7g8d#1->-repeat-38fk#1,26000136,BLIND,7679970,NaN,complete,NaN,NaN,computer,Desktop or Laptop,Windows 10,Chrome 108.0.0.0,1280x720,1280x720,End of Day 1,SLS,90,A,Pass,End of Day 1,Pass,NaN,NaN,NaN,Pass,NaN,Pass,NaN,schedule_A,schedule_A,6,2,3,offer,bluebox,response_button_image,1010.39999999106,NaN,NaN,yellowBox.png,1,0,1,0,NaN,NaN,NaN,NaN,NaN,trial_left,redBox.png,redBox.png,yellowBox.png,al1_con.png,6,5,NaN,NaN,0.85,0.85,1,1,1,1,Volatile,Stable,1.832,1.118,0.752,1.79,expert
27,1671235236273,17/12/2022 00:00:36,1671235236057,0,17/12/2022 00:00:36,109680,37,task-xjip,repeat-7g8d#1->-repeat-38fk#1,26000136,BLIND,7679970,NaN,complete,NaN,NaN,computer,Desktop or Laptop,Windows 10,Chrome 108.0.0.0,1280x720,1280x720,End of Day 1,SLS,90,A,Pass,End of Day 1,Pass,NaN,NaN,NaN,Pass,NaN,Pass,NaN,schedule_A,schedule_A,6,2,5,feedback_r,Zone7,timelimit_screen,1999.717,NaN,NaN,,NaN,0,1,0,NaN,NaN,1,NaN,NaN,trial_left,redBox.png,redBox.png,yellowBox.png,al1_con.png,6,5,NaN,NaN,0.85,0.85,1,1,1,1,Volatile,Stable,1.832,1.118,0.752,1.79,expert
28,1671235236409,17/12/2022 00:00:36,1671235236207,0,17/12/2022 00:00:36,109680,37,task-xjip,repeat-7g8d#1->-repeat-38fk#1,26000136,BLIND,7679970,NaN,complete,NaN,NaN,computer,Desktop or Laptop,Windows 10,Chrome 108.0.0.0,1280x720,1280x720,End of Day 1,SLS,90,A,Pass,End of Day 1,Pass,NaN,NaN,NaN,Pass,NaN,Pass,NaN,schedule_A,schedule_A,6,2,6,end,Zone1,timelimit_screen,149.958000000006,NaN,NaN,,NaN,0,1,0,NaN,NaN,1,NaN,NaN,trial_left,redBox.png,redBox.png,yellowBox.png,al1_con.png,6,5,NaN,NaN,0.85,0.85,1,1,1,1,Volatile,Stable,1.832,1.118,0.752,1.79,expert
29,1671235237688,17/12/2022 00:00:37,1671235237478,0,17/12/2022 00:00:37,109680,37,task-xjip,repeat-7g8d#1->-repeat-38fk#1,26000136,BLIND,7679970,NaN,complete,NaN,NaN,computer,Desktop or Laptop,Windows 10,Chrome 108.0.0.0,1280x720,1280x720,End of Day 1,SLS,90,A,Pass,End of Day 1,Pass,NaN,NaN,NaN,Pass,NaN,Pass,NaN,schedule_A,schedule_A,7,4,1,Screen 1,Zone1,continue_button,1250.70000000298,NaN,NaN,,NaN,0,1,0,NaN,NaN,NaN,NaN,NaN,trial_right,yellowBox.png,redBox.png,yellowBox.png,al1_con.png,7,6,NaN,NaN,0.15,0.85,0,1,0,1,Volatile,Stable,3.294,0.815,1.282,2.664,expert
30,1671235238762,17/12/2022 00:00:38,1671235238475,0,17/12/2022 00:00:38,109680,37,task-xjip,repeat-7g8d#1->-repeat-38fk#1,26000136,BLIND,7679970,NaN,complete,NaN,NaN,computer,Desktop or Laptop,Windows 10,Chrome 108.0.0.0,1280x720,1280x720,End of Day 1,SLS,90,A,Pass,End of Day 1,Pass,NaN,NaN,NaN,Pass,NaN,Pass,NaN,schedule_A,schedule_A,7,4,2,individual,Zone4,timelimit_screen,999.898999999998,NaN,NaN,,NaN,0,1,0,NaN,NaN,1,NaN,NaN,trial_right,yellowBox.png,redBox.png,yellowBox.png,al1_con.png,7,6,NaN,NaN,0.15,0.85,0,1,0,1,Volatile,Stable,3.294,0.815,1.282,2.664,expert
31,1671235239841,17/12/2022 00:00:39,1671235239615,0,17/12/2022 00:00:39,109680,37,task-xjip,repeat-7g8d#1->-repeat-38fk#1,26000136,BLIND,7679970,NaN,complete,NaN,NaN,computer,Desktop or Laptop,Windows 10,Chrome 108.0.0.0,1280x720,1280x720,End of Day 1,SLS,90,A,Pass,End of Day 1,Pass,NaN,NaN,NaN,Pass,NaN,Pass,NaN,schedule_A,schedule_A,7,4,3,offer,Zone3,response_button_image,1131,NaN,NaN,yellowBox.png,1,1,0,0,NaN,NaN,NaN,NaN,NaN,trial_right,yellowBox.png,redBox.png,yellowBox.png,al1_con.png,7,6,NaN,NaN,0.15,0.85,0,1,0,1,Volatile,Stable,3.294,0.815,1.282,2.664,expert
32,1671235241821,17/12/2022 00:00:41,1671235241607,0,17/12/2022 00:00:41,109680,37,task-xjip,repeat-7g8d#1->-repeat-38fk#1,26000136,BLIND,7679970,NaN,complete,NaN,NaN,computer,Desktop or Laptop,Windows 10,Chrome 108.0.0.0,1280x720,1280x720,End of Day 1,SLS,90,A,Pass,End of Day 1,Pass,NaN,NaN,NaN,Pass,NaN,Pass,NaN,schedule_A,schedule_A,7,4,5,feedback_r,Zone7,timelimit_screen,1999.807,NaN,NaN,,NaN,0,1,0,NaN,NaN,1,NaN,NaN,trial_right,yellowBox.png,redBox.png,yellowBox.png,al1_con.png,7,6,NaN,NaN,0.15,0.85,0,1,0,1,Volatile,Stable,3.294,0.815,1.282,2.664,expert
33,1671235241959,17/12/2022 00:00:41,1671235241757,0,17/12/2022 00:00:41,109680,37,task-xjip,repeat-7g8d#1->-repeat-38fk#1,26000136,BLIND,7679970,NaN,complete,NaN,NaN,computer,Desktop or Laptop,Windows 10,Chrome 108.0.0.0,1280x720,1280x720,End of Day 1,SLS,90,A,Pass,End of Day 1,Pass,NaN,NaN,NaN,Pass,NaN,Pass,NaN,schedule_A,schedule_A,7,4,6,end,Zone1,timelimit_screen,149.909,NaN,NaN,,NaN,0,1,0,NaN,NaN,1,NaN,NaN,trial_right,yellowBox.png,redBox.png,yellowBox.png,al1_con.png,7,6,NaN,NaN,0.15,0.85,0,1,0,1,Volatile,Stable,3.294,0.815,1.282,2.664,expert
34,1671235243163,17/12/2022 00:00:43,1671235242971,0,17/12/2022 00:00:42,109680,37,task-xjip,repeat-7g8d#1->-repeat-38fk#1,26000136,BLIND,7679970,NaN,complete,NaN,NaN,computer,Desktop or Laptop,Windows 10,Chrome 108.0.0.0,1280x720,1280x720,End of Day 1,SLS,90,A,Pass,End of Day 1,Pass,NaN,NaN,NaN,Pass,NaN,Pass,NaN,schedule_A,schedule_A,8,3,1,Screen 1,Zone1,continue_button,1196.40000000596,NaN,NaN,,NaN,0,1,0,NaN,NaN,NaN,NaN,NaN,trial_left,yellowBox.png,yellowBox.png,redBox.png,al1_con.png,8,7,NaN,NaN,0.15,0.85,0,1,0,0,Volatile,Stable,3.269,1.37,1.786,2.328,expert
35,1671235244156,17/12/2022 00:00:44,1671235243957,0,17/12/2022 00:00:43,109680,37,task-xjip,repeat-7g8d#1->-repeat-38fk#1,26000136,BLIND,7679970,NaN,complete,NaN,NaN,computer,Desktop or Laptop,Windows 10,Chrome 108.0.0.0,1280x720,1280x720,End of Day 1,SLS,90,A,Pass,End of Day 1,Pass,NaN,NaN,NaN,Pass,NaN,Pass,NaN,schedule_A,schedule_A,8,3,2,individual,Zone4,timelimit_screen,999.877,NaN,NaN,,NaN,0,1,0,NaN,NaN,1,NaN,NaN,trial_left,yellowBox.png,yellowBox.png,redBox.png,al1_con.png,8,7,NaN,NaN,0.15,0.85,0,1,0,0,Volatile,Stable,3.269,1.37,1.786,2.328,expert
36,1671235245038,17/12/2022 00:00:45,1671235244832,0,17/12/2022 00:00:44,109680,37,task-xjip,repeat-7g8d#1->-repeat-38fk#1,26000136,BLIND,7679970,NaN,complete,NaN,NaN,computer,Desktop or Laptop,Windows 10,Chrome 108.0.0.0,1280x720,1280x720,End of Day 1,SLS,90,A,Pass,End of Day 1,Pass,NaN,NaN,NaN,Pass,NaN,Pass,NaN,schedule_A,schedule_A,8,3,3,offer,Zone2,response_button_image,866.70000000298,NaN,NaN,yellowBox.png,1,1,0,0,NaN,NaN,NaN,NaN,NaN,trial_left,yellowBox.png,yellowBox.png,redBox.png,al1_con.png,8,7,NaN,NaN,0.15,0.85,0,1,0,0,Volatile,Stable,3.269,1.37,1.786,2.328,expert
37,1671235247037,17/12/2022 00:00:47,1671235246823,0,17/12/2022 00:00:46,109680,37,task-xjip,repeat-7g8d#1->-repeat-38fk#1,26000136,BLIND,7679970,NaN,complete,NaN,NaN,computer,Desktop or Laptop,Windows 10,Chrome 108.0.0.0,1280x720,1280x720,End of Day 1,SLS,90,A,Pass,End of Day 1,Pass,NaN,NaN,NaN,Pass,NaN,Pass,NaN,schedule_A,schedule_A,8,3,4,feedback_l,Zone7,timelimit_screen,1999.782,NaN,NaN,,NaN,0,1,0,NaN,NaN,1,NaN,NaN,trial_left,yellowBox.png,yellowBox.png,redBox.png,al1_con.png,8,7,NaN,NaN,0.15,0.85,0,1,0,0,Volatile,Stable,3.269,1.37,1.786,2.328,expert
38,1671235247181,17/12/2022 00:00:47,1671235246973,0,17/12/2022 00:00:46,109680,37,task-xjip,repeat-7g8d#1->-repeat-38fk#1,26000136,BLIND,7679970,NaN,complete,NaN,NaN,computer,Desktop or Laptop,Windows 10,Chrome 108.0.0.0,1280x720,1280x720,End of Day 1,SLS,90,A,Pass,End of Day 1,Pass,NaN,NaN,NaN,Pass,NaN,Pass,NaN,schedule_A,schedule_A,8,3,6,end,Zone1,timelimit_screen,149.989000000001,NaN,NaN,,NaN,0,1,0,NaN,NaN,1,NaN,NaN,trial_left,yellowBox.png,yellowBox.png,redBox.png,al1_con.png,8,7,NaN,NaN,0.15,0.85,0,1,0,0,Volatile,Stable,3.269,1.37,1.786,2.328,expert
39,1671235248327,17/12/2022 00:00:48,1671235248110,0,17/12/2022 00:00:48,109680,37,task-xjip,repeat-7g8d#1->-repeat-38fk#1,26000136,BLIND,7679970,NaN,complete,NaN,NaN,computer,Desktop or Laptop,Windows 10,Chrome 108.0.0.0,1280x720,1280x720,End of Day 1,SLS,90,A,Pass,End of Day 1,Pass,NaN,NaN,NaN,Pass,NaN,Pass,NaN,schedule_A,schedule_A,9,4,1,Screen 1,Zone1,continue_button,1120.79999999702,NaN,NaN,,NaN,0,1,0,NaN,NaN,NaN,NaN,NaN,trial_left,yellowBox.png,redBox.png,yellowBox.png,al1_con.png,9,8,NaN,NaN,0.15,0.85,0,0,1,1,Volatile,Stable,3.975,0.576,1.256,1.807,expert
40,1671235249409,17/12/2022 00:00:49,1671235249105,0,17/12/2022 00:00:49,109680,37,task-xjip,repeat-7g8d#1->-repeat-38fk#1,26000136,BLIND,7679970,NaN,complete,NaN,NaN,computer,Desktop or Laptop,Windows 10,Chrome 108.0.0.0,1280x720,1280x720,End of Day 1,SLS,90,A,Pass,End of Day 1,Pass,NaN,NaN,NaN,Pass,NaN,Pass,NaN,schedule_A,schedule_A,9,4,2,individual,Zone4,timelimit_screen,999.885000000002,NaN,NaN,,NaN,0,1,0,NaN,NaN,1,NaN,NaN,trial_left,yellowBox.png,redBox.png,yellowBox.png,al1_con.png,9,8,NaN,NaN,0.15,0.85,0,0,1,1,Volatile,Stable,3.975,0.576,1.256,1.807,expert
41,1671235250449,17/12/2022 00:00:50,1671235250241,0,17/12/2022 00:00:50,109680,37,task-xjip,repeat-7g8d#1->-repeat-38fk#1,26000136,BLIND,7679970,NaN,complete,NaN,NaN,computer,Desktop or Laptop,Windows 10,Chrome 108.0.0.0,1280x720,1280x720,End of Day 1,SLS,90,A,Pass,End of Day 1,Pass,NaN,NaN,NaN,Pass,NaN,Pass,NaN,schedule_A,schedule_A,9,4,3,offer,Zone2,response_button_image,1126.30000001192,NaN,NaN,redBox.png,1,0,1,0,NaN,NaN,NaN,NaN,NaN,trial_left,yellowBox.png,redBox.png,yellowBox.png,al1_con.png,9,8,NaN,NaN,0.15,0.85,0,0,1,1,Volatile,Stable,3.975,0.576,1.256,1.807,expert
42,1671235252446,17/12/2022 00:00:52,1671235252238,0,17/12/2022 00:00:52,109680,37,task-xjip,repeat-7g8d#1->-repeat-38fk#1,26000136,BLIND,7679970,NaN,complete,NaN,NaN,computer,Desktop or Laptop,Windows 10,Chrome 108.0.0.0,1280x720,1280x720,End of Day 1,SLS,90,A,Pass,End of Day 1,Pass,NaN,NaN,NaN,Pass,NaN,Pass,NaN,schedule_A,schedule_A,9,4,4,feedback_l,Zone7,timelimit_screen,1999.715,NaN,NaN,,NaN,0,1,0,NaN,NaN,1,NaN,NaN,trial_left,yellowBox.png,redBox.png,yellowBox.png,al1_con.png,9,8,NaN,NaN,0.15,0.85,0,0,1,1,Volatile,Stable,3.975,0.576,1.256,1.807,expert
43,1671235252592,17/12/2022 00:00:52,1671235252389,0,17/12/2022 00:00:52,109680,37,task-xjip,repeat-7g8d#1->-repeat-38fk#1,26000136,BLIND,7679970,NaN,complete,NaN,NaN,computer,Desktop or Laptop,Windows 10,Chrome 108.0.0.0,1280x720,1280x720,End of Day 1,SLS,90,A,Pass,End of Day 1,Pass,NaN,NaN,NaN,Pass,NaN,Pass,NaN,schedule_A,schedule_A,9,4,6,end,Zone1,timelimit_screen,149.972000000002,NaN,NaN,,NaN,0,1,0,NaN,NaN,1,NaN,NaN,trial_left,yellowBox.png,redBox.png,yellowBox.png,al1_con.png,9,8,NaN,NaN,0.15,0.85,0,0,1,1,Volatile,Stable,3.975,0.576,1.256,1.807,expert
44,1671235253611,17/12/2022 00:00:53,1671235253408,0,17/12/2022 00:00:53,109680,37,task-xjip,repeat-7g8d#1->-repeat-38fk#1,26000136,BLIND,7679970,NaN,complete,NaN,NaN,computer,Desktop or Laptop,Windows 10,Chrome 108.0.0.0,1280x720,1280x720,End of Day 1,SLS,90,A,Pass,End of Day 1,Pass,NaN,NaN,NaN,Pass,NaN,Pass,NaN,schedule_A,schedule_A,10,5,1,Screen 1,Zone1,continue_button,1001.5,NaN,NaN,,NaN,0,1,0,NaN,NaN,NaN,NaN,NaN,trial_right,redBox.png,redBox.png,yellowBox.png,al1_con.png,10,9,NaN,NaN,0.15,0.85,1,0,0,1,Volatile,Stable,3.798,1.055,1.559,2.042,expert
45,1671235254616,17/12/2022 00:00:54,1671235254405,0,17/12/2022 00:00:54,109680,37,task-xjip,repeat-7g8d#1->-repeat-38fk#1,26000136,BLIND,7679970,NaN,complete,NaN,NaN,computer,Desktop or Laptop,Windows 10,Chrome 108.0.0.0,1280x720,1280x720,End of Day 1,SLS,90,A,Pass,End of Day 1,Pass,NaN,NaN,NaN,Pass,NaN,Pass,NaN,schedule_A,schedule_A,10,5,2,individual,Zone4,timelimit_screen,999.868999999999,NaN,NaN,,NaN,0,1,0,NaN,NaN,1,NaN,NaN,trial_right,redBox.png,redBox.png,yellowBox.png,al1_con.png,10,9,NaN,NaN,0.15,0.85,1,0,0,1,Volatile,Stable,3.798,1.055,1.559,2.042,expert
46,1671235255970,17/12/2022 00:00:55,1671235255760,0,17/12/2022 00:00:55,109680,37,task-xjip,repeat-7g8d#1->-repeat-38fk#1,26000136,BLIND,7679970,NaN,complete,NaN,NaN,computer,Desktop or Laptop,Windows 10,Chrome 108.0.0.0,1280x720,1280x720,End of Day 1,SLS,90,A,Pass,End of Day 1,Pass,NaN,NaN,NaN,Pass,NaN,Pass,NaN,schedule_A,schedule_A,10,5,3,offer,Zone3,response_button_image,1344.89999999106,NaN,NaN,yellowBox.png,1,0,1,0,NaN,NaN,NaN,NaN,NaN,trial_right,redBox.png,redBox.png,yellowBox.png,al1_con.png,10,9,NaN,NaN,0.15,0.85,1,0,0,1,Volatile,Stable,3.798,1.055,1.559,2.042,expert
47,1671235257966,17/12/2022 00:00:57,1671235257754,0,17/12/2022 00:00:57,109680,37,task-xjip,repeat-7g8d#1->-repeat-38fk#1,26000136,BLIND,7679970,NaN,complete,NaN,NaN,computer,Desktop or Laptop,Windows 10,Chrome 108.0.0.0,1280x720,1280x720,End of Day 1,SLS,90,A,Pass,End of Day 1,Pass,NaN,NaN,NaN,Pass,NaN,Pass,NaN,schedule_A,schedule_A,10,5,5,feedback_r,Zone7,timelimit_screen,1999.793,NaN,NaN,,NaN,0,1,0,NaN,NaN,1,NaN,NaN,trial_right,redBox.png,redBox.png,yellowBox.png,al1_con.png,10,9,NaN,NaN,0.15,0.85,1,0,0,1,Volatile,Stable,3.798,1.055,1.559,2.042,expert
48,1671235258112,17/12/2022 00:00:58,1671235257904,0,17/12/2022 00:00:57,109680,37,task-xjip,repeat-7g8d#1->-repeat-38fk#1,26000136,BLIND,7679970,NaN,complete,NaN,NaN,computer,Desktop or Laptop,Windows 10,Chrome 108.0.0.0,1280x720,1280x720,End of Day 1,SLS,90,A,Pass,End of Day 1,Pass,NaN,NaN,NaN,Pass,NaN,Pass,NaN,schedule_A,schedule_A,10,5,6,end,Zone1,timelimit_screen,149.906000000003,NaN,NaN,,NaN,0,1,0,NaN,NaN,1,NaN,NaN,trial_right,redBox.png,redBox.png,yellowBox.png,al1_con.png,10,9,NaN,NaN,0.15,0.85,1,0,0,1,Volatile,Stable,3.798,1.055,1.559,2.042,expert
49,1671235259499,17/12/2022 00:00:59,1671235259184,0,17/12/2022 00:00:59,109680,37,task-xjip,repeat-7g8d#1->-repeat-38fk#1,26000136,BLIND,7679970,NaN,complete,NaN,NaN,computer,Desktop or Laptop,Windows 10,Chrome 108.0.0.0,1280x720,1280x720,End of Day 1,SLS,90,A,Pass,End of Day 1,Pass,NaN,NaN,NaN,Pass,NaN,Pass,NaN,schedule_A,schedule_A,11,6,1,Screen 1,Zone1,continue_button,1263.79999999702,NaN,NaN,,NaN,0,1,0,NaN,NaN,NaN,NaN,NaN,trial_right,yellowBox.png,redBox.png,yellowBox.png,al1_con.png,21,10,NaN,NaN,0.15,0.85,0,1,0,1,Volatile,Stable,1.857,0.5,1.294,2.916,expert
50,1671235260373,17/12/2022 00:01:00,1671235260171,0,17/12/2022 00:01:00,109680,37,task-xjip,repeat-7g8d#1->-repeat-38fk#1,26000136,BLIND,7679970,NaN,complete,NaN,NaN,computer,Desktop or Laptop,Windows 10,Chrome 108.0.0.0,1280x720,1280x720,End of Day 1,SLS,90,A,Pass,End of Day 1,Pass,NaN,NaN,NaN,Pass,NaN,Pass,NaN,schedule_A,schedule_A,11,6,2,individual,Zone4,timelimit_screen,999.784,NaN,NaN,,NaN,0,1,0,NaN,NaN,1,NaN,NaN,trial_right,yellowBox.png,redBox.png,yellowBox.png,al1_con.png,21,10,NaN,NaN,0.15,0.85,0,1,0,1,Volatile,Stable,1.857,0.5,1.294,2.916,expert
51,1671235261144,17/12/2022 00:01:01,1671235260946,0,17/12/2022 00:01:00,109680,37,task-xjip,repeat-7g8d#1->-repeat-38fk#1,26000136,BLIND,7679970,NaN,complete,NaN,NaN,computer,Desktop or Laptop,Windows 10,Chrome 108.0.0.0,1280x720,1280x720,End of Day 1,SLS,90,A,Pass,End of Day 1,Pass,NaN,NaN,NaN,Pass,NaN,Pass,NaN,schedule_A,schedule_A,11,6,3,offer,Zone2,response_button_image,765.79999999702,NaN,NaN,redBox.png,1,0,1,0,NaN,NaN,NaN,NaN,NaN,trial_right,yellowBox.png,redBox.png,yellowBox.png,al1_con.png,21,10,NaN,NaN,0.15,0.85,0,1,0,1,Volatile,Stable,1.857,0.5,1.294,2.916,expert
52,1671235263153,17/12/2022 00:01:03,1671235262937,0,17/12/2022 00:01:02,109680,37,task-xjip,repeat-7g8d#1->-repeat-38fk#1,26000136,BLIND,7679970,NaN,complete,NaN,NaN,computer,Desktop or Laptop,Windows 10,Chrome 108.0.0.0,1280x720,1280x720,End of Day 1,SLS,90,A,Pass,End of Day 1,Pass,NaN,NaN,NaN,Pass,NaN,Pass,NaN,schedule_A,schedule_A,11,6,4,feedback_l,Zone7,timelimit_screen,1999.79500000001,NaN,NaN,,NaN,0,1,0,NaN,NaN,1,NaN,NaN,trial_right,yellowBox.png,redBox.png,yellowBox.png,al1_con.png,21,10,NaN,NaN,0.15,0.85,0,1,0,1,Volatile,Stable,1.857,0.5,1.294,2.916,expert
53,1671235263288,17/12/2022 00:01:03,1671235263087,0,17/12/2022 00:01:03,109680,37,task-xjip,repeat-7g8d#1->-repeat-38fk#1,26000136,BLIND,7679970,NaN,complete,NaN,NaN,computer,Desktop or Laptop,Windows 10,Chrome 108.0.0.0,1280x720,1280x720,End of Day 1,SLS,90,A,Pass,End of Day 1,Pass,NaN,NaN,NaN,Pass,NaN,Pass,NaN,schedule_A,schedule_A,11,6,6,end,Zone1,timelimit_screen,149.987999999998,NaN,NaN,,NaN,0,1,0,NaN,NaN,1,NaN,NaN,trial_right,yellowBox.png,redBox.png,yellowBox.png,al1_con.png,21,10,NaN,NaN,0.15,0.85,0,1,0,1,Volatile,Stable,1.857,0.5,1.294,2.916,expert
54,1671235264687,17/12/2022 00:01:04,1671235264467,0,17/12/2022 00:01:04,109680,37,task-xjip,repeat-7g8d#1->-repeat-38fk#1,26000136,BLIND,7679970,NaN,complete,NaN,NaN,computer,Desktop or Laptop,Windows 10,Chrome 108.0.0.0,1280x720,1280x720,End of Day 1,SLS,90,A,Pass,End of Day 1,Pass,NaN,NaN,NaN,Pass,NaN,Pass,NaN,schedule_A,schedule_A,12,5,1,Screen 1,Zone1,continue_button,1365.29999999702,NaN,NaN,,NaN,0,1,0,NaN,NaN,NaN,NaN,NaN,trial_left,redBox.png,redBox.png,yellowBox.png,al1_con.png,22,11,NaN,NaN,0.85,0.85,1,1,1,1,Volatile,Stable,1.126,1.849,1.483,1.689,expert
55,1671235265663,17/12/2022 00:01:05,1671235265454,0,17/12/2022 00:01:05,109680,37,task-xjip,repeat-7g8d#1->-repeat-38fk#1,26000136,BLIND,7679970,NaN,complete,NaN,NaN,computer,Desktop or Laptop,Windows 10,Chrome 108.0.0.0,1280x720,1280x720,End of Day 1,SLS,90,A,Pass,End of Day 1,Pass,NaN,NaN,NaN,Pass,NaN,Pass,NaN,schedule_A,schedule_A,12,5,2,individual,Zone4,timelimit_screen,999.891000000003,NaN,NaN,,NaN,0,1,0,NaN,NaN,1,NaN,NaN,trial_left,redBox.png,redBox.png,yellowBox.png,al1_con.png,22,11,NaN,NaN,0.85,0.85,1,1,1,1,Volatile,Stable,1.126,1.849,1.483,1.689,expert
56,1671235266905,17/12/2022 00:01:06,1671235266696,0,17/12/2022 00:01:06,109680,37,task-xjip,repeat-7g8d#1->-repeat-38fk#1,26000136,BLIND,7679970,NaN,complete,NaN,NaN,computer,Desktop or Laptop,Windows 10,Chrome 108.0.0.0,1280x720,1280x720,End of Day 1,SLS,90,A,Pass,End of Day 1,Pass,NaN,NaN,NaN,Pass,NaN,Pass,NaN,schedule_A,schedule_A,12,5,3,offer,bluebox,response_button_image,1233.80000001192,NaN,NaN,yellowBox.png,1,0,1,0,NaN,NaN,NaN,NaN,NaN,trial_left,redBox.png,redBox.png,yellowBox.png,al1_con.png,22,11,NaN,NaN,0.85,0.85,1,1,1,1,Volatile,Stable,1.126,1.849,1.483,1.689,expert
57,1671235268975,17/12/2022 00:01:08,1671235268686,0,17/12/2022 00:01:08,109680,37,task-xjip,repeat-7g8d#1->-repeat-38fk#1,26000136,BLIND,7679970,NaN,complete,NaN,NaN,computer,Desktop or Laptop,Windows 10,Chrome 108.0.0.0,1280x720,1280x720,End of Day 1,SLS,90,A,Pass,End of Day 1,Pass,NaN,NaN,NaN,Pass,NaN,Pass,NaN,schedule_A,schedule_A,12,5,5,feedback_r,Zone7,timelimit_screen,1999.755,NaN,NaN,,NaN,0,1,0,NaN,NaN,1,NaN,NaN,trial_left,redBox.png,redBox.png,yellowBox.png,al1_con.png,22,11,NaN,NaN,0.85,0.85,1,1,1,1,Volatile,Stable,1.126,1.849,1.483,1.689,expert
58,1671235269067,17/12/2022 00:01:09,1671235268836,0,17/12/2022 00:01:08,109680,37,task-xjip,repeat-7g8d#1->-repeat-38fk#1,26000136,BLIND,7679970,NaN,complete,NaN,NaN,computer,Desktop or Laptop,Windows 10,Chrome 108.0.0.0,1280x720,1280x720,End of Day 1,SLS,90,A,Pass,End of Day 1,Pass,NaN,NaN,NaN,Pass,NaN,Pass,NaN,schedule_A,schedule_A,12,5,6,end,Zone1,timelimit_screen,150.024000000005,NaN,NaN,,NaN,0,1,0,NaN,NaN,1,NaN,NaN,trial_left,redBox.png,redBox.png,yellowBox.png,al1_con.png,22,11,NaN,NaN,0.85,0.85,1,1,1,1,Volatile,Stable,1.126,1.849,1.483,1.689,expert
59,1671235270355,17/12/2022 00:01:10,1671235270154,0,17/12/2022 00:01:10,109680,37,task-xjip,repeat-7g8d#1->-repeat-38fk#1,26000136,BLIND,7679970,NaN,complete,NaN,NaN,computer,Desktop or Laptop,Windows 10,Chrome 108.0.0.0,1280x720,1280x720,End of Day 1,SLS,90,A,Pass,End of Day 1,Pass,NaN,NaN,NaN,Pass,NaN,Pass,NaN,schedule_A,schedule_A,13,7,1,Screen 1,Zone1,continue_button,1300.40000000596,NaN,NaN,,NaN,0,1,0,NaN,NaN,NaN,NaN,NaN,trial_right,redBox.png,yellowBox.png,redBox.png,al1_con.png,23,12,NaN,NaN,0.85,0.85,1,1,1,0,Volatile,Stable,2.361,0.992,0.5,1.975,expert
60,1671235271364,17/12/2022 00:01:11,1671235271154,0,17/12/2022 00:01:11,109680,37,task-xjip,repeat-7g8d#1->-repeat-38fk#1,26000136,BLIND,7679970,NaN,complete,NaN,NaN,computer,Desktop or Laptop,Windows 10,Chrome 108.0.0.0,1280x720,1280x720,End of Day 1,SLS,90,A,Pass,End of Day 1,Pass,NaN,NaN,NaN,Pass,NaN,Pass,NaN,schedule_A,schedule_A,13,7,2,individual,Zone4,timelimit_screen,999.884999999995,NaN,NaN,,NaN,0,1,0,NaN,NaN,1,NaN,NaN,trial_right,redBox.png,yellowBox.png,redBox.png,al1_con.png,23,12,NaN,NaN,0.85,0.85,1,1,1,0,Volatile,Stable,2.361,0.992,0.5,1.975,expert
61,1671235272161,17/12/2022 00:01:12,1671235271954,0,17/12/2022 00:01:11,109680,37,task-xjip,repeat-7g8d#1->-repeat-38fk#1,26000136,BLIND,7679970,NaN,complete,NaN,NaN,computer,Desktop or Laptop,Windows 10,Chrome 108.0.0.0,1280x720,1280x720,End of Day 1,SLS,90,A,Pass,End of Day 1,Pass,NaN,NaN,NaN,Pass,NaN,Pass,NaN,schedule_A,schedule_A,13,7,3,offer,Zone3,response_button_image,791.90000000596,NaN,NaN,redBox.png,1,1,0,0,NaN,NaN,NaN,NaN,NaN,trial_right,redBox.png,yellowBox.png,redBox.png,al1_con.png,23,12,NaN,NaN,0.85,0.85,1,1,1,0,Volatile,Stable,2.361,0.992,0.5,1.975,expert
62,1671235274159,17/12/2022 00:01:14,1671235273952,0,17/12/2022 00:01:13,109680,37,task-xjip,repeat-7g8d#1->-repeat-38fk#1,26000136,BLIND,7679970,NaN,complete,NaN,NaN,computer,Desktop or Laptop,Windows 10,Chrome 108.0.0.0,1280x720,1280x720,End of Day 1,SLS,90,A,Pass,End of Day 1,Pass,NaN,NaN,NaN,Pass,NaN,Pass,NaN,schedule_A,schedule_A,13,7,5,feedback_r,Zone7,timelimit_screen,1999.72500000001,NaN,NaN,,NaN,0,1,0,NaN,NaN,1,NaN,NaN,trial_right,redBox.png,yellowBox.png,redBox.png,al1_con.png,23,12,NaN,NaN,0.85,0.85,1,1,1,0,Volatile,Stable,2.361,0.992,0.5,1.975,expert
63,1671235274305,17/12/2022 00:01:14,1671235274102,0,17/12/2022 00:01:14,109680,37,task-xjip,repeat-7g8d#1->-repeat-38fk#1,26000136,BLIND,7679970,NaN,complete,NaN,NaN,computer,Desktop or Laptop,Windows 10,Chrome 108.0.0.0,1280x720,1280x720,End of Day 1,SLS,90,A,Pass,End of Day 1,Pass,NaN,NaN,NaN,Pass,NaN,Pass,NaN,schedule_A,schedule_A,13,7,6,end,Zone1,timelimit_screen,149.976999999999,NaN,NaN,,NaN,0,1,0,NaN,NaN,1,NaN,NaN,trial_right,redBox.png,yellowBox.png,redBox.png,al1_con.png,23,12,NaN,NaN,0.85,0.85,1,1,1,0,Volatile,Stable,2.361,0.992,0.5,1.975,expert
64,1671235275490,17/12/2022 00:01:15,1671235275275,0,17/12/2022 00:01:15,109680,37,task-xjip,repeat-7g8d#1->-repeat-38fk#1,26000136,BLIND,7679970,NaN,complete,NaN,NaN,computer,Desktop or Laptop,Windows 10,Chrome 108.0.0.0,1280x720,1280x720,End of Day 1,SLS,90,A,Pass,End of Day 1,Pass,NaN,NaN,NaN,Pass,NaN,Pass,NaN,schedule_A,schedule_A,14,8,1,Screen 1,Zone1,continue_button,1157.39999999106,NaN,NaN,,NaN,0,1,0,NaN,NaN,NaN,NaN,NaN,trial_right,redBox.png,redBox.png,yellowBox.png,al1_con.png,24,13,NaN,NaN,0.85,0.85,1,0,0,1,Volatile,Stable,1.05,1.95,1.319,1.487,expert
65,1671235276472,17/12/2022 00:01:16,1671235276269,0,17/12/2022 00:01:16,109680,37,task-xjip,repeat-7g8d#1->-repeat-38fk#1,26000136,BLIND,7679970,NaN,complete,NaN,NaN,computer,Desktop or Laptop,Windows 10,Chrome 108.0.0.0,1280x720,1280x720,End of Day 1,SLS,90,A,Pass,End of Day 1,Pass,NaN,NaN,NaN,Pass,NaN,Pass,NaN,schedule_A,schedule_A,14,8,2,individual,Zone4,timelimit_screen,999.985000000001,NaN,NaN,,NaN,0,1,0,NaN,NaN,1,NaN,NaN,trial_right,redBox.png,redBox.png,yellowBox.png,al1_con.png,24,13,NaN,NaN,0.85,0.85,1,0,0,1,Volatile,Stable,1.05,1.95,1.319,1.487,expert
66,1671235277556,17/12/2022 00:01:17,1671235277354,0,17/12/2022 00:01:17,109680,37,task-xjip,repeat-7g8d#1->-repeat-38fk#1,26000136,BLIND,7679970,NaN,complete,NaN,NaN,computer,Desktop or Laptop,Windows 10,Chrome 108.0.0.0,1280x720,1280x720,End of Day 1,SLS,90,A,Pass,End of Day 1,Pass,NaN,NaN,NaN,Pass,NaN,Pass,NaN,schedule_A,schedule_A,14,8,3,offer,Zone3,response_button_image,1076.09999999404,NaN,NaN,yellowBox.png,1,0,1,0,NaN,NaN,NaN,NaN,NaN,trial_right,redBox.png,redBox.png,yellowBox.png,al1_con.png,24,13,NaN,NaN,0.85,0.85,1,0,0,1,Volatile,Stable,1.05,1.95,1.319,1.487,expert
67,1671235279634,17/12/2022 00:01:19,1671235279351,0,17/12/2022 00:01:19,109680,37,task-xjip,repeat-7g8d#1->-repeat-38fk#1,26000136,BLIND,7679970,NaN,complete,NaN,NaN,computer,Desktop or Laptop,Windows 10,Chrome 108.0.0.0,1280x720,1280x720,End of Day 1,SLS,90,A,Pass,End of Day 1,Pass,NaN,NaN,NaN,Pass,NaN,Pass,NaN,schedule_A,schedule_A,14,8,5,feedback_r,Zone7,timelimit_screen,1999.732,NaN,NaN,,NaN,0,1,0,NaN,NaN,1,NaN,NaN,trial_right,redBox.png,redBox.png,yellowBox.png,al1_con.png,24,13,NaN,NaN,0.85,0.85,1,0,0,1,Volatile,Stable,1.05,1.95,1.319,1.487,expert
68,1671235279707,17/12/2022 00:01:19,1671235279502,0,17/12/2022 00:01:19,109680,37,task-xjip,repeat-7g8d#1->-repeat-38fk#1,26000136,BLIND,7679970,NaN,complete,NaN,NaN,computer,Desktop or Laptop,Windows 10,Chrome 108.0.0.0,1280x720,1280x720,End of Day 1,SLS,90,A,Pass,End of Day 1,Pass,NaN,NaN,NaN,Pass,NaN,Pass,NaN,schedule_A,schedule_A,14,8,6,end,Zone1,timelimit_screen,150.013000000006,NaN,NaN,,NaN,0,1,0,NaN,NaN,1,NaN,NaN,trial_right,redBox.png,redBox.png,yellowBox.png,al1_con.png,24,13,NaN,NaN,0.85,0.85,1,0,0,1,Volatile,Stable,1.05,1.95,1.319,1.487,expert
69,1671235280931,17/12/2022 00:01:20,1671235280730,0,17/12/2022 00:01:20,109680,37,task-xjip,repeat-7g8d#1->-repeat-38fk#1,26000136,BLIND,7679970,NaN,complete,NaN,NaN,computer,Desktop or Laptop,Windows 10,Chrome 108.0.0.0,1280x720,1280x720,End of Day 1,SLS,90,A,Pass,End of Day 1,Pass,NaN,NaN,NaN,Pass,NaN,Pass,NaN,schedule_A,schedule_A,15,9,1,Screen 1,Zone1,continue_button,1210.69999998808,NaN,NaN,,NaN,0,1,0,NaN,NaN,NaN,NaN,NaN,trial_right,redBox.png,yellowBox.png,redBox.png,al1_con.png,25,14,NaN,NaN,0.85,0.85,1,1,1,0,Volatile,Stable,3.395,0.84,0.803,1.252,expert
70,1671235281924,17/12/2022 00:01:21,1671235281718,0,17/12/2022 00:01:21,109680,37,task-xjip,repeat-7g8d#1->-repeat-38fk#1,26000136,BLIND,7679970,NaN,complete,NaN,NaN,computer,Desktop or Laptop,Windows 10,Chrome 108.0.0.0,1280x720,1280x720,End of Day 1,SLS,90,A,Pass,End of Day 1,Pass,NaN,NaN,NaN,Pass,NaN,Pass,NaN,schedule_A,schedule_A,15,9,2,individual,Zone4,timelimit_screen,999.911000000007,NaN,NaN,,NaN,0,1,0,NaN,NaN,1,NaN,NaN,trial_right,redBox.png,yellowBox.png,redBox.png,al1_con.png,25,14,NaN,NaN,0.85,0.85,1,1,1,0,Volatile,Stable,3.395,0.84,0.803,1.252,expert
71,1671235282912,17/12/2022 00:01:22,1671235282710,0,17/12/2022 00:01:22,109680,37,task-xjip,repeat-7g8d#1->-repeat-38fk#1,26000136,BLIND,7679970,NaN,complete,NaN,NaN,computer,Desktop or Laptop,Windows 10,Chrome 108.0.0.0,1280x720,1280x720,End of Day 1,SLS,90,A,Pass,End of Day 1,Pass,NaN,NaN,NaN,Pass,NaN,Pass,NaN,schedule_A,schedule_A,15,9,3,offer,Zone2,response_button_image,983.600000008941,NaN,NaN,yellowBox.png,1,0,1,0,NaN,NaN,NaN,NaN,NaN,trial_right,redBox.png,yellowBox.png,redBox.png,al1_con.png,25,14,NaN,NaN,0.85,0.85,1,1,1,0,Volatile,Stable,3.395,0.84,0.803,1.252,expert
72,1671235284913,17/12/2022 00:01:24,1671235284701,0,17/12/2022 00:01:24,109680,37,task-xjip,repeat-7g8d#1->-repeat-38fk#1,26000136,BLIND,7679970,NaN,complete,NaN,NaN,computer,Desktop or Laptop,Windows 10,Chrome 108.0.0.0,1280x720,1280x720,End of Day 1,SLS,90,A,Pass,End of Day 1,Pass,NaN,NaN,NaN,Pass,NaN,Pass,NaN,schedule_A,schedule_A,15,9,4,feedback_l,Zone7,timelimit_screen,1999.72899999999,NaN,NaN,,NaN,0,1,0,NaN,NaN,1,NaN,NaN,trial_right,redBox.png,yellowBox.png,redBox.png,al1_con.png,25,14,NaN,NaN,0.85,0.85,1,1,1,0,Volatile,Stable,3.395,0.84,0.803,1.252,expert
73,1671235285066,17/12/2022 00:01:25,1671235284850,0,17/12/2022 00:01:24,109680,37,task-xjip,repeat-7g8d#1->-repeat-38fk#1,26000136,BLIND,7679970,NaN,complete,NaN,NaN,computer,Desktop or Laptop,Windows 10,Chrome 108.0.0.0,1280x720,1280x720,End of Day 1,SLS,90,A,Pass,End of Day 1,Pass,NaN,NaN,NaN,Pass,NaN,Pass,NaN,schedule_A,schedule_A,15,9,6,end,Zone1,timelimit_screen,149.877000000008,NaN,NaN,,NaN,0,1,0,NaN,NaN,1,NaN,NaN,trial_right,redBox.png,yellowBox.png,redBox.png,al1_con.png,25,14,NaN,NaN,0.85,0.85,1,1,1,0,Volatile,Stable,3.395,0.84,0.803,1.252,expert
74,1671235286209,17/12/2022 00:01:26,1671235286009,0,17/12/2022 00:01:26,109680,37,task-xjip,repeat-7g8d#1->-repeat-38fk#1,26000136,BLIND,7679970,NaN,complete,NaN,NaN,computer,Desktop or Laptop,Windows 10,Chrome 108.0.0.0,1280x720,1280x720,End of Day 1,SLS,90,A,Pass,End of Day 1,Pass,NaN,NaN,NaN,Pass,NaN,Pass,NaN,schedule_A,schedule_A,16,10,1,Screen 1,Zone1,continue_button,1140.19999998808,NaN,NaN,,NaN,0,1,0,NaN,NaN,NaN,NaN,NaN,trial_right,yellowBox.png,redBox.png,yellowBox.png,al1_con.png,26,15,NaN,NaN,0.85,0.85,0,1,0,1,Volatile,Stable,2.689,1.067,1.697,2.731,expert
75,1671235287216,17/12/2022 00:01:27,1671235287000,0,17/12/2022 00:01:27,109680,37,task-xjip,repeat-7g8d#1->-repeat-38fk#1,26000136,BLIND,7679970,NaN,complete,NaN,NaN,computer,Desktop or Laptop,Windows 10,Chrome 108.0.0.0,1280x720,1280x720,End of Day 1,SLS,90,A,Pass,End of Day 1,Pass,NaN,NaN,NaN,Pass,NaN,Pass,NaN,schedule_A,schedule_A,16,10,2,individual,Zone4,timelimit_screen,999.835000000006,NaN,NaN,,NaN,0,1,0,NaN,NaN,1,NaN,NaN,trial_right,yellowBox.png,redBox.png,yellowBox.png,al1_con.png,26,15,NaN,NaN,0.85,0.85,0,1,0,1,Volatile,Stable,2.689,1.067,1.697,2.731,expert
76,1671235288160,17/12/2022 00:01:28,1671235287958,0,17/12/2022 00:01:27,109680,37,task-xjip,repeat-7g8d#1->-repeat-38fk#1,26000136,BLIND,7679970,NaN,complete,NaN,NaN,computer,Desktop or Laptop,Windows 10,Chrome 108.0.0.0,1280x720,1280x720,End of Day 1,SLS,90,A,Pass,End of Day 1,Pass,NaN,NaN,NaN,Pass,NaN,Pass,NaN,schedule_A,schedule_A,16,10,3,offer,Zone3,response_button_image,948.70000000298,NaN,NaN,yellowBox.png,1,1,0,0,NaN,NaN,NaN,NaN,NaN,trial_right,yellowBox.png,redBox.png,yellowBox.png,al1_con.png,26,15,NaN,NaN,0.85,0.85,0,1,0,1,Volatile,Stable,2.689,1.067,1.697,2.731,expert
77,1671235290160,17/12/2022 00:01:30,1671235289949,0,17/12/2022 00:01:29,109680,37,task-xjip,repeat-7g8d#1->-repeat-38fk#1,26000136,BLIND,7679970,NaN,complete,NaN,NaN,computer,Desktop or Laptop,Windows 10,Chrome 108.0.0.0,1280x720,1280x720,End of Day 1,SLS,90,A,Pass,End of Day 1,Pass,NaN,NaN,NaN,Pass,NaN,Pass,NaN,schedule_A,schedule_A,16,10,5,feedback_r,Zone7,timelimit_screen,1999.685,NaN,NaN,,NaN,0,1,0,NaN,NaN,1,NaN,NaN,trial_right,yellowBox.png,redBox.png,yellowBox.png,al1_con.png,26,15,NaN,NaN,0.85,0.85,0,1,0,1,Volatile,Stable,2.689,1.067,1.697,2.731,expert
78,1671235290310,17/12/2022 00:01:30,1671235290100,0,17/12/2022 00:01:30,109680,37,task-xjip,repeat-7g8d#1->-repeat-38fk#1,26000136,BLIND,7679970,NaN,complete,NaN,NaN,computer,Desktop or Laptop,Windows 10,Chrome 108.0.0.0,1280x720,1280x720,End of Day 1,SLS,90,A,Pass,End of Day 1,Pass,NaN,NaN,NaN,Pass,NaN,Pass,NaN,schedule_A,schedule_A,16,10,6,end,Zone1,timelimit_screen,149.988000000012,NaN,NaN,,NaN,0,1,0,NaN,NaN,1,NaN,NaN,trial_right,yellowBox.png,redBox.png,yellowBox.png,al1_con.png,26,15,NaN,NaN,0.85,0.85,0,1,0,1,Volatile,Stable,2.689,1.067,1.697,2.731,expert
79,1671235291642,17/12/2022 00:01:31,1671235291432,0,17/12/2022 00:01:31,109680,37,task-xjip,repeat-7g8d#1->-repeat-38fk#1,26000136,BLIND,7679970,NaN,complete,NaN,NaN,computer,Desktop or Laptop,Windows 10,Chrome 108.0.0.0,1280x720,1280x720,End of Day 1,SLS,90,A,Pass,End of Day 1,Pass,NaN,NaN,NaN,Pass,NaN,Pass,NaN,schedule_A,schedule_A,17,6,1,Screen 1,Zone1,continue_button,1316.5,NaN,NaN,,NaN,0,1,0,NaN,NaN,NaN,NaN,NaN,trial_left,yellowBox.png,yellowBox.png,redBox.png,al1_con.png,27,16,NaN,NaN,0.15,0.85,0,1,0,0,Volatile,Stable,1.378,0.689,0.878,2.076,expert
80,1671235292622,17/12/2022 00:01:32,1671235292416,0,17/12/2022 00:01:32,109680,37,task-xjip,repeat-7g8d#1->-repeat-38fk#1,26000136,BLIND,7679970,NaN,complete,NaN,NaN,computer,Desktop or Laptop,Windows 10,Chrome 108.0.0.0,1280x720,1280x720,End of Day 1,SLS,90,A,Pass,End of Day 1,Pass,NaN,NaN,NaN,Pass,NaN,Pass,NaN,schedule_A,schedule_A,17,6,2,individual,Zone4,timelimit_screen,999.873000000007,NaN,NaN,,NaN,0,1,0,NaN,NaN,1,NaN,NaN,trial_left,yellowBox.png,yellowBox.png,redBox.png,al1_con.png,27,16,NaN,NaN,0.15,0.85,0,1,0,0,Volatile,Stable,1.378,0.689,0.878,2.076,expert
81,1671235293473,17/12/2022 00:01:33,1671235293271,0,17/12/2022 00:01:33,109680,37,task-xjip,repeat-7g8d#1->-repeat-38fk#1,26000136,BLIND,7679970,NaN,complete,NaN,NaN,computer,Desktop or Laptop,Windows 10,Chrome 108.0.0.0,1280x720,1280x720,End of Day 1,SLS,90,A,Pass,End of Day 1,Pass,NaN,NaN,NaN,Pass,NaN,Pass,NaN,schedule_A,schedule_A,17,6,3,offer,Zone2,response_button_image,845.79999999702,NaN,NaN,yellowBox.png,1,1,0,0,NaN,NaN,NaN,NaN,NaN,trial_left,yellowBox.png,yellowBox.png,redBox.png,al1_con.png,27,16,NaN,NaN,0.15,0.85,0,1,0,0,Volatile,Stable,1.378,0.689,0.878,2.076,expert
82,1671235295476,17/12/2022 00:01:35,1671235295266,0,17/12/2022 00:01:35,109680,37,task-xjip,repeat-7g8d#1->-repeat-38fk#1,26000136,BLIND,7679970,NaN,complete,NaN,NaN,computer,Desktop or Laptop,Windows 10,Chrome 108.0.0.0,1280x720,1280x720,End of Day 1,SLS,90,A,Pass,End of Day 1,Pass,NaN,NaN,NaN,Pass,NaN,Pass,NaN,schedule_A,schedule_A,17,6,4,feedback_l,Zone7,timelimit_screen,1999.796,NaN,NaN,,NaN,0,1,0,NaN,NaN,1,NaN,NaN,trial_left,yellowBox.png,yellowBox.png,redBox.png,al1_con.png,27,16,NaN,NaN,0.15,0.85,0,1,0,0,Volatile,Stable,1.378,0.689,0.878,2.076,expert
83,1671235295615,17/12/2022 00:01:35,1671235295415,0,17/12/2022 00:01:35,109680,37,task-xjip,repeat-7g8d#1->-repeat-38fk#1,26000136,BLIND,7679970,NaN,complete,NaN,NaN,computer,Desktop or Laptop,Windows 10,Chrome 108.0.0.0,1280x720,1280x720,End of Day 1,SLS,90,A,Pass,End of Day 1,Pass,NaN,NaN,NaN,Pass,NaN,Pass,NaN,schedule_A,schedule_A,17,6,6,end,Zone1,timelimit_screen,149.894,NaN,NaN,,NaN,0,1,0,NaN,NaN,1,NaN,NaN,trial_left,yellowBox.png,yellowBox.png,redBox.png,al1_con.png,27,16,NaN,NaN,0.15,0.85,0,1,0,0,Volatile,Stable,1.378,0.689,0.878,2.076,expert
84,1671235296936,17/12/2022 00:01:36,1671235296725,0,17/12/2022 00:01:36,109680,37,task-xjip,repeat-7g8d#1->-repeat-38fk#1,26000136,BLIND,7679970,NaN,complete,NaN,NaN,computer,Desktop or Laptop,Windows 10,Chrome 108.0.0.0,1280x720,1280x720,End of Day 1,SLS,90,A,Pass,End of Day 1,Pass,NaN,NaN,NaN,Pass,NaN,Pass,NaN,schedule_A,schedule_A,18,11,1,Screen 1,Zone1,continue_button,1293.29999999702,NaN,NaN,,NaN,0,1,0,NaN,NaN,NaN,NaN,NaN,trial_right,yellowBox.png,redBox.png,yellowBox.png,al1_con.png,28,17,NaN,NaN,0.15,0.85,0,1,0,1,Volatile,Stable,2.714,0.739,1.975,1.134,expert
85,1671235297911,17/12/2022 00:01:37,1671235297716,0,17/12/2022 00:01:37,109680,37,task-xjip,repeat-7g8d#1->-repeat-38fk#1,26000136,BLIND,7679970,NaN,complete,NaN,NaN,computer,Desktop or Laptop,Windows 10,Chrome 108.0.0.0,1280x720,1280x720,End of Day 1,SLS,90,A,Pass,End of Day 1,Pass,NaN,NaN,NaN,Pass,NaN,Pass,NaN,schedule_A,schedule_A,18,11,2,individual,Zone4,timelimit_screen,999.835000000006,NaN,NaN,,NaN,0,1,0,NaN,NaN,1,NaN,NaN,trial_right,yellowBox.png,redBox.png,yellowBox.png,al1_con.png,28,17,NaN,NaN,0.15,0.85,0,1,0,1,Volatile,Stable,2.714,0.739,1.975,1.134,expert
86,1671235299221,17/12/2022 00:01:39,1671235298933,0,17/12/2022 00:01:38,109680,37,task-xjip,repeat-7g8d#1->-repeat-38fk#1,26000136,BLIND,7679970,NaN,complete,NaN,NaN,computer,Desktop or Laptop,Windows 10,Chrome 108.0.0.0,1280x720,1280x720,End of Day 1,SLS,90,A,Pass,End of Day 1,Pass,NaN,NaN,NaN,Pass,NaN,Pass,NaN,schedule_A,schedule_A,18,11,3,offer,Zone2,response_button_image,1209.59999999404,NaN,NaN,redBox.png,1,0,1,0,NaN,NaN,NaN,NaN,NaN,trial_right,yellowBox.png,redBox.png,yellowBox.png,al1_con.png,28,17,NaN,NaN,0.15,0.85,0,1,0,1,Volatile,Stable,2.714,0.739,1.975,1.134,expert
87,1671235301143,17/12/2022 00:01:41,1671235300931,0,17/12/2022 00:01:40,109680,37,task-xjip,repeat-7g8d#1->-repeat-38fk#1,26000136,BLIND,7679970,NaN,complete,NaN,NaN,computer,Desktop or Laptop,Windows 10,Chrome 108.0.0.0,1280x720,1280x720,End of Day 1,SLS,90,A,Pass,End of Day 1,Pass,NaN,NaN,NaN,Pass,NaN,Pass,NaN,schedule_A,schedule_A,18,11,4,feedback_l,Zone7,timelimit_screen,1999.71999999999,NaN,NaN,,NaN,0,1,0,NaN,NaN,1,NaN,NaN,trial_right,yellowBox.png,redBox.png,yellowBox.png,al1_con.png,28,17,NaN,NaN,0.15,0.85,0,1,0,1,Volatile,Stable,2.714,0.739,1.975,1.134,expert
88,1671235301292,17/12/2022 00:01:41,1671235301081,0,17/12/2022 00:01:41,109680,37,task-xjip,repeat-7g8d#1->-repeat-38fk#1,26000136,BLIND,7679970,NaN,complete,NaN,NaN,computer,Desktop or Laptop,Windows 10,Chrome 108.0.0.0,1280x720,1280x720,End of Day 1,SLS,90,A,Pass,End of Day 1,Pass,NaN,NaN,NaN,Pass,NaN,Pass,NaN,schedule_A,schedule_A,18,11,6,end,Zone1,timelimit_screen,149.917000000001,NaN,NaN,,NaN,0,1,0,NaN,NaN,1,NaN,NaN,trial_right,yellowBox.png,redBox.png,yellowBox.png,al1_con.png,28,17,NaN,NaN,0.15,0.85,0,1,0,1,Volatile,Stable,2.714,0.739,1.975,1.134,expert
89,1671235303235,17/12/2022 00:01:43,1671235303032,0,17/12/2022 00:01:43,109680,37,task-xjip,repeat-7g8d#1->-repeat-38fk#1,26000136,BLIND,7679970,NaN,complete,NaN,NaN,computer,Desktop or Laptop,Windows 10,Chrome 108.0.0.0,1280x720,1280x720,End of Day 1,SLS,90,A,Pass,End of Day 1,Pass,NaN,NaN,NaN,Pass,NaN,Pass,NaN,schedule_A,schedule_A,19,7,1,Screen 1,Zone1,continue_button,1931,NaN,NaN,,NaN,0,1,0,NaN,NaN,NaN,NaN,NaN,trial_left,yellowBox.png,yellowBox.png,redBox.png,al1_con.png,29,18,NaN,NaN,0.15,0.85,0,1,0,0,Volatile,Stable,3.874,0.676,1.496,1.639,expert
90,1671235304238,17/12/2022 00:01:44,1671235304031,0,17/12/2022 00:01:44,109680,37,task-xjip,repeat-7g8d#1->-repeat-38fk#1,26000136,BLIND,7679970,NaN,complete,NaN,NaN,computer,Desktop or Laptop,Windows 10,Chrome 108.0.0.0,1280x720,1280x720,End of Day 1,SLS,90,A,Pass,End of Day 1,Pass,NaN,NaN,NaN,Pass,NaN,Pass,NaN,schedule_A,schedule_A,19,7,2,individual,Zone4,timelimit_screen,999.860000000001,NaN,NaN,,NaN,0,1,0,NaN,NaN,1,NaN,NaN,trial_left,yellowBox.png,yellowBox.png,redBox.png,al1_con.png,29,18,NaN,NaN,0.15,0.85,0,1,0,0,Volatile,Stable,3.874,0.676,1.496,1.639,expert
91,1671235304954,17/12/2022 00:01:44,1671235304754,0,17/12/2022 00:01:44,109680,37,task-xjip,repeat-7g8d#1->-repeat-38fk#1,26000136,BLIND,7679970,NaN,complete,NaN,NaN,computer,Desktop or Laptop,Windows 10,Chrome 108.0.0.0,1280x720,1280x720,End of Day 1,SLS,90,A,Pass,End of Day 1,Pass,NaN,NaN,NaN,Pass,NaN,Pass,NaN,schedule_A,schedule_A,19,7,3,offer,Zone2,response_button_image,714.59999999404,NaN,NaN,yellowBox.png,1,1,0,0,NaN,NaN,NaN,NaN,NaN,trial_left,yellowBox.png,yellowBox.png,redBox.png,al1_con.png,29,18,NaN,NaN,0.15,0.85,0,1,0,0,Volatile,Stable,3.874,0.676,1.496,1.639,expert
92,1671235306973,17/12/2022 00:01:46,1671235306747,0,17/12/2022 00:01:46,109680,37,task-xjip,repeat-7g8d#1->-repeat-38fk#1,26000136,BLIND,7679970,NaN,complete,NaN,NaN,computer,Desktop or Laptop,Windows 10,Chrome 108.0.0.0,1280x720,1280x720,End of Day 1,SLS,90,A,Pass,End of Day 1,Pass,NaN,NaN,NaN,Pass,NaN,Pass,NaN,schedule_A,schedule_A,19,7,4,feedback_l,Zone7,timelimit_screen,1999.67199999999,NaN,NaN,,NaN,0,1,0,NaN,NaN,1,NaN,NaN,trial_left,yellowBox.png,yellowBox.png,redBox.png,al1_con.png,29,18,NaN,NaN,0.15,0.85,0,1,0,0,Volatile,Stable,3.874,0.676,1.496,1.639,expert
93,1671235307101,17/12/2022 00:01:47,1671235306897,0,17/12/2022 00:01:46,109680,37,task-xjip,repeat-7g8d#1->-repeat-38fk#1,26000136,BLIND,7679970,NaN,complete,NaN,NaN,computer,Desktop or Laptop,Windows 10,Chrome 108.0.0.0,1280x720,1280x720,End of Day 1,SLS,90,A,Pass,End of Day 1,Pass,NaN,NaN,NaN,Pass,NaN,Pass,NaN,schedule_A,schedule_A,19,7,6,end,Zone1,timelimit_screen,150.018000000011,NaN,NaN,,NaN,0,1,0,NaN,NaN,1,NaN,NaN,trial_left,yellowBox.png,yellowBox.png,redBox.png,al1_con.png,29,18,NaN,NaN,0.15,0.85,0,1,0,0,Volatile,Stable,3.874,0.676,1.496,1.639,expert
94,1671235308141,17/12/2022 00:01:48,1671235307922,0,17/12/2022 00:01:47,109680,37,task-xjip,repeat-7g8d#1->-repeat-38fk#1,26000136,BLIND,7679970,NaN,complete,NaN,NaN,computer,Desktop or Laptop,Windows 10,Chrome 108.0.0.0,1280x720,1280x720,End of Day 1,SLS,90,A,Pass,End of Day 1,Pass,NaN,NaN,NaN,Pass,NaN,Pass,NaN,schedule_A,schedule_A,20,12,1,Screen 1,Zone1,continue_button,1010.39999999106,NaN,NaN,,NaN,0,1,0,NaN,NaN,NaN,NaN,NaN,trial_right,yellowBox.png,yellowBox.png,redBox.png,al1_con.png,30,19,NaN,NaN,0.15,0.85,0,0,1,0,Volatile,Stable,1.252,1.193,0.853,2.681,expert
95,1671235309208,17/12/2022 00:01:49,1671235308914,0,17/12/2022 00:01:48,109680,37,task-xjip,repeat-7g8d#1->-repeat-38fk#1,26000136,BLIND,7679970,NaN,complete,NaN,NaN,computer,Desktop or Laptop,Windows 10,Chrome 108.0.0.0,1280x720,1280x720,End of Day 1,SLS,90,A,Pass,End of Day 1,Pass,NaN,NaN,NaN,Pass,NaN,Pass,NaN,schedule_A,schedule_A,20,12,2,individual,Zone4,timelimit_screen,999.773000000001,NaN,NaN,,NaN,0,1,0,NaN,NaN,1,NaN,NaN,trial_right,yellowBox.png,yellowBox.png,redBox.png,al1_con.png,30,19,NaN,NaN,0.15,0.85,0,0,1,0,Volatile,Stable,1.252,1.193,0.853,2.681,expert
96,1671235309959,17/12/2022 00:01:49,1671235309750,0,17/12/2022 00:01:49,109680,37,task-xjip,repeat-7g8d#1->-repeat-38fk#1,26000136,BLIND,7679970,NaN,complete,NaN,NaN,computer,Desktop or Laptop,Windows 10,Chrome 108.0.0.0,1280x720,1280x720,End of Day 1,SLS,90,A,Pass,End of Day 1,Pass,NaN,NaN,NaN,Pass,NaN,Pass,NaN,schedule_A,schedule_A,20,12,3,offer,Zone3,response_button_image,825.100000008941,NaN,NaN,redBox.png,1,0,1,0,NaN,NaN,NaN,NaN,NaN,trial_right,yellowBox.png,yellowBox.png,redBox.png,al1_con.png,30,19,NaN,NaN,0.15,0.85,0,0,1,0,Volatile,Stable,1.252,1.193,0.853,2.681,expert
97,1671235311963,17/12/2022 00:01:51,1671235311746,0,17/12/2022 00:01:51,109680,37,task-xjip,repeat-7g8d#1->-repeat-38fk#1,26000136,BLIND,7679970,NaN,complete,NaN,NaN,computer,Desktop or Laptop,Windows 10,Chrome 108.0.0.0,1280x720,1280x720,End of Day 1,SLS,90,A,Pass,End of Day 1,Pass,NaN,NaN,NaN,Pass,NaN,Pass,NaN,schedule_A,schedule_A,20,12,5,feedback_r,Zone7,timelimit_screen,1999.65399999999,NaN,NaN,,NaN,0,1,0,NaN,NaN,1,NaN,NaN,trial_right,yellowBox.png,yellowBox.png,redBox.png,al1_con.png,30,19,NaN,NaN,0.15,0.85,0,0,1,0,Volatile,Stable,1.252,1.193,0.853,2.681,expert
98,1671235312106,17/12/2022 00:01:52,1671235311897,0,17/12/2022 00:01:51,109680,37,task-xjip,repeat-7g8d#1->-repeat-38fk#1,26000136,BLIND,7679970,NaN,complete,NaN,NaN,computer,Desktop or Laptop,Windows 10,Chrome 108.0.0.0,1280x720,1280x720,End of Day 1,SLS,90,A,Pass,End of Day 1,Pass,NaN,NaN,NaN,Pass,NaN,Pass,NaN,schedule_A,schedule_A,20,12,6,end,Zone1,timelimit_screen,149.956999999995,NaN,NaN,,NaN,0,1,0,NaN,NaN,1,NaN,NaN,trial_right,yellowBox.png,yellowBox.png,redBox.png,al1_con.png,30,19,NaN,NaN,0.15,0.85,0,0,1,0,Volatile,Stable,1.252,1.193,0.853,2.681,expert
99,1671235313216,17/12/2022 00:01:53,1671235313008,0,17/12/2022 00:01:53,109680,37,task-xjip,repeat-7g8d#1->-repeat-38fk#1,26000136,BLIND,7679970,NaN,complete,NaN,NaN,computer,Desktop or Laptop,Windows 10,Chrome 108.0.0.0,1280x720,1280x720,End of Day 1,SLS,90,A,Pass,End of Day 1,Pass,NaN,NaN,NaN,Pass,NaN,Pass,NaN,schedule_A,schedule_A,21,13,1,Screen 1,Zone1,continue_button,1096,NaN,NaN,,NaN,0,1,0,NaN,NaN,NaN,NaN,NaN,trial_right,yellowBox.png,redBox.png,yellowBox.png,al1_con.png,41,20,NaN,NaN,0.15,0.85,0,1,0,1,Volatile,Stable,3.521,1.723,1.37,1.655,expert
100,1671235314190,17/12/2022 00:01:54,1671235313996,0,17/12/2022 00:01:53,109680,37,task-xjip,repeat-7g8d#1->-repeat-38fk#1,26000136,BLIND,7679970,NaN,complete,NaN,NaN,computer,Desktop or Laptop,Windows 10,Chrome 108.0.0.0,1280x720,1280x720,End of Day 1,SLS,90,A,Pass,End of Day 1,Pass,NaN,NaN,NaN,Pass,NaN,Pass,NaN,schedule_A,schedule_A,21,13,2,individual,Zone4,timelimit_screen,999.860000000001,NaN,NaN,,NaN,0,1,0,NaN,NaN,1,NaN,NaN,trial_right,yellowBox.png,redBox.png,yellowBox.png,al1_con.png,41,20,NaN,NaN,0.15,0.85,0,1,0,1,Volatile,Stable,3.521,1.723,1.37,1.655,expert
101,1671235315122,17/12/2022 00:01:55,1671235314912,0,17/12/2022 00:01:54,109680,37,task-xjip,repeat-7g8d#1->-repeat-38fk#1,26000136,BLIND,7679970,NaN,complete,NaN,NaN,computer,Desktop or Laptop,Windows 10,Chrome 108.0.0.0,1280x720,1280x720,End of Day 1,SLS,90,A,Pass,End of Day 1,Pass,NaN,NaN,NaN,Pass,NaN,Pass,NaN,schedule_A,schedule_A,21,13,3,offer,Zone3,response_button_image,907.100000008941,NaN,NaN,yellowBox.png,1,1,0,0,NaN,NaN,NaN,NaN,NaN,trial_right,yellowBox.png,redBox.png,yellowBox.png,al1_con.png,41,20,NaN,NaN,0.15,0.85,0,1,0,1,Volatile,Stable,3.521,1.723,1.37,1.655,expert
102,1671235317099,17/12/2022 00:01:57,1671235316896,0,17/12/2022 00:01:56,109680,37,task-xjip,repeat-7g8d#1->-repeat-38fk#1,26000136,BLIND,7679970,NaN,complete,NaN,NaN,computer,Desktop or Laptop,Windows 10,Chrome 108.0.0.0,1280x720,1280x720,End of Day 1,SLS,90,A,Pass,End of Day 1,Pass,NaN,NaN,NaN,Pass,NaN,Pass,NaN,schedule_A,schedule_A,21,13,5,feedback_r,Zone7,timelimit_screen,1999.71799999999,NaN,NaN,,NaN,0,1,0,NaN,NaN,1,NaN,NaN,trial_right,yellowBox.png,redBox.png,yellowBox.png,al1_con.png,41,20,NaN,NaN,0.15,0.85,0,1,0,1,Volatile,Stable,3.521,1.723,1.37,1.655,expert
103,1671235317255,17/12/2022 00:01:57,1671235317046,0,17/12/2022 00:01:57,109680,37,task-xjip,repeat-7g8d#1->-repeat-38fk#1,26000136,BLIND,7679970,NaN,complete,NaN,NaN,computer,Desktop or Laptop,Windows 10,Chrome 108.0.0.0,1280x720,1280x720,End of Day 1,SLS,90,A,Pass,End of Day 1,Pass,NaN,NaN,NaN,Pass,NaN,Pass,NaN,schedule_A,schedule_A,21,13,6,end,Zone1,timelimit_screen,149.974000000002,NaN,NaN,,NaN,0,1,0,NaN,NaN,1,NaN,NaN,trial_right,yellowBox.png,redBox.png,yellowBox.png,al1_con.png,41,20,NaN,NaN,0.15,0.85,0,1,0,1,Volatile,Stable,3.521,1.723,1.37,1.655,expert
104,1671235318290,17/12/2022 00:01:58,1671235318080,0,17/12/2022 00:01:58,109680,37,task-xjip,repeat-7g8d#1->-repeat-38fk#1,26000136,BLIND,7679970,NaN,complete,NaN,NaN,computer,Desktop or Laptop,Windows 10,Chrome 108.0.0.0,1280x720,1280x720,End of Day 1,SLS,90,A,Pass,End of Day 1,Pass,NaN,NaN,NaN,Pass,NaN,Pass,NaN,schedule_A,schedule_A,22,14,1,Screen 1,Zone1,continue_button,1019.29999999702,NaN,NaN,,NaN,0,1,0,NaN,NaN,NaN,NaN,NaN,trial_right,redBox.png,yellowBox.png,redBox.png,al1_con.png,42,21,NaN,NaN,0.85,0.85,1,1,1,0,Stable,Stable,2.336,0.651,1.685,2.882,expert
105,1671235319359,17/12/2022 00:01:59,1671235319079,0,17/12/2022 00:01:59,109680,37,task-xjip,repeat-7g8d#1->-repeat-38fk#1,26000136,BLIND,7679970,NaN,complete,NaN,NaN,computer,Desktop or Laptop,Windows 10,Chrome 108.0.0.0,1280x720,1280x720,End of Day 1,SLS,90,A,Pass,End of Day 1,Pass,NaN,NaN,NaN,Pass,NaN,Pass,NaN,schedule_A,schedule_A,22,14,2,individual,Zone4,timelimit_screen,999.870999999999,NaN,NaN,,NaN,0,1,0,NaN,NaN,1,NaN,NaN,trial_right,redBox.png,yellowBox.png,redBox.png,al1_con.png,42,21,NaN,NaN,0.85,0.85,1,1,1,0,Stable,Stable,2.336,0.651,1.685,2.882,expert
106,1671235320104,17/12/2022 00:02:00,1671235319893,0,17/12/2022 00:01:59,109680,37,task-xjip,repeat-7g8d#1->-repeat-38fk#1,26000136,BLIND,7679970,NaN,complete,NaN,NaN,computer,Desktop or Laptop,Windows 10,Chrome 108.0.0.0,1280x720,1280x720,End of Day 1,SLS,90,A,Pass,End of Day 1,Pass,NaN,NaN,NaN,Pass,NaN,Pass,NaN,schedule_A,schedule_A,22,14,3,offer,Zone3,response_button_image,805.59999999404,NaN,NaN,redBox.png,1,1,0,0,NaN,NaN,NaN,NaN,NaN,trial_right,redBox.png,yellowBox.png,redBox.png,al1_con.png,42,21,NaN,NaN,0.85,0.85,1,1,1,0,Stable,Stable,2.336,0.651,1.685,2.882,expert
107,1671235322090,17/12/2022 00:02:02,1671235321879,0,17/12/2022 00:02:01,109680,37,task-xjip,repeat-7g8d#1->-repeat-38fk#1,26000136,BLIND,7679970,NaN,complete,NaN,NaN,computer,Desktop or Laptop,Windows 10,Chrome 108.0.0.0,1280x720,1280x720,End of Day 1,SLS,90,A,Pass,End of Day 1,Pass,NaN,NaN,NaN,Pass,NaN,Pass,NaN,schedule_A,schedule_A,22,14,5,feedback_r,Zone7,timelimit_screen,1999.791,NaN,NaN,,NaN,0,1,0,NaN,NaN,1,NaN,NaN,trial_right,redBox.png,yellowBox.png,redBox.png,al1_con.png,42,21,NaN,NaN,0.85,0.85,1,1,1,0,Stable,Stable,2.336,0.651,1.685,2.882,expert
108,1671235322241,17/12/2022 00:02:02,1671235322028,0,17/12/2022 00:02:02,109680,37,task-xjip,repeat-7g8d#1->-repeat-38fk#1,26000136,BLIND,7679970,NaN,complete,NaN,NaN,computer,Desktop or Laptop,Windows 10,Chrome 108.0.0.0,1280x720,1280x720,End of Day 1,SLS,90,A,Pass,End of Day 1,Pass,NaN,NaN,NaN,Pass,NaN,Pass,NaN,schedule_A,schedule_A,22,14,6,end,Zone1,timelimit_screen,149.900999999998,NaN,NaN,,NaN,0,1,0,NaN,NaN,1,NaN,NaN,trial_right,redBox.png,yellowBox.png,redBox.png,al1_con.png,42,21,NaN,NaN,0.85,0.85,1,1,1,0,Stable,Stable,2.336,0.651,1.685,2.882,expert
109,1671235323201,17/12/2022 00:02:03,1671235322991,0,17/12/2022 00:02:02,109680,37,task-xjip,repeat-7g8d#1->-repeat-38fk#1,26000136,BLIND,7679970,NaN,complete,NaN,NaN,computer,Desktop or Laptop,Windows 10,Chrome 108.0.0.0,1280x720,1280x720,End of Day 1,SLS,90,A,Pass,End of Day 1,Pass,NaN,NaN,NaN,Pass,NaN,Pass,NaN,schedule_A,schedule_A,23,15,1,Screen 1,Zone1,continue_button,948.09999999404,NaN,NaN,,NaN,0,1,0,NaN,NaN,NaN,NaN,NaN,trial_right,redBox.png,yellowBox.png,redBox.png,al1_con.png,43,22,NaN,NaN,0.85,0.85,1,1,1,0,Stable,Stable,3.622,1.319,1.193,1.067,expert
110,1671235324188,17/12/2022 00:02:04,1671235323979,0,17/12/2022 00:02:03,109680,37,task-xjip,repeat-7g8d#1->-repeat-38fk#1,26000136,BLIND,7679970,NaN,complete,NaN,NaN,computer,Desktop or Laptop,Windows 10,Chrome 108.0.0.0,1280x720,1280x720,End of Day 1,SLS,90,A,Pass,End of Day 1,Pass,NaN,NaN,NaN,Pass,NaN,Pass,NaN,schedule_A,schedule_A,23,15,2,individual,Zone4,timelimit_screen,999.843999999997,NaN,NaN,,NaN,0,1,0,NaN,NaN,1,NaN,NaN,trial_right,redBox.png,yellowBox.png,redBox.png,al1_con.png,43,22,NaN,NaN,0.85,0.85,1,1,1,0,Stable,Stable,3.622,1.319,1.193,1.067,expert
111,1671235325033,17/12/2022 00:02:05,1671235324823,0,17/12/2022 00:02:04,109680,37,task-xjip,repeat-7g8d#1->-repeat-38fk#1,26000136,BLIND,7679970,NaN,complete,NaN,NaN,computer,Desktop or Laptop,Windows 10,Chrome 108.0.0.0,1280x720,1280x720,End of Day 1,SLS,90,A,Pass,End of Day 1,Pass,NaN,NaN,NaN,Pass,NaN,Pass,NaN,schedule_A,schedule_A,23,15,3,offer,Zone3,response_button_image,833.70000000298,NaN,NaN,redBox.png,1,1,0,0,NaN,NaN,NaN,NaN,NaN,trial_right,redBox.png,yellowBox.png,redBox.png,al1_con.png,43,22,NaN,NaN,0.85,0.85,1,1,1,0,Stable,Stable,3.622,1.319,1.193,1.067,expert
112,1671235327011,17/12/2022 00:02:07,1671235326811,0,17/12/2022 00:02:06,109680,37,task-xjip,repeat-7g8d#1->-repeat-38fk#1,26000136,BLIND,7679970,NaN,complete,NaN,NaN,computer,Desktop or Laptop,Windows 10,Chrome 108.0.0.0,1280x720,1280x720,End of Day 1,SLS,90,A,Pass,End of Day 1,Pass,NaN,NaN,NaN,Pass,NaN,Pass,NaN,schedule_A,schedule_A,23,15,5,feedback_r,Zone7,timelimit_screen,1999.724,NaN,NaN,,NaN,0,1,0,NaN,NaN,1,NaN,NaN,trial_right,redBox.png,yellowBox.png,redBox.png,al1_con.png,43,22,NaN,NaN,0.85,0.85,1,1,1,0,Stable,Stable,3.622,1.319,1.193,1.067,expert
113,1671235327171,17/12/2022 00:02:07,1671235326961,0,17/12/2022 00:02:06,109680,37,task-xjip,repeat-7g8d#1->-repeat-38fk#1,26000136,BLIND,7679970,NaN,complete,NaN,NaN,computer,Desktop or Laptop,Windows 10,Chrome 108.0.0.0,1280x720,1280x720,End of Day 1,SLS,90,A,Pass,End of Day 1,Pass,NaN,NaN,NaN,Pass,NaN,Pass,NaN,schedule_A,schedule_A,23,15,6,end,Zone1,timelimit_screen,150.070999999996,NaN,NaN,,NaN,0,1,0,NaN,NaN,1,NaN,NaN,trial_right,redBox.png,yellowBox.png,redBox.png,al1_con.png,43,22,NaN,NaN,0.85,0.85,1,1,1,0,Stable,Stable,3.622,1.319,1.193,1.067,expert
114,1671235327982,17/12/2022 00:02:07,1671235327783,0,17/12/2022 00:02:07,109680,37,task-xjip,repeat-7g8d#1->-repeat-38fk#1,26000136,BLIND,7679970,NaN,complete,NaN,NaN,computer,Desktop or Laptop,Windows 10,Chrome 108.0.0.0,1280x720,1280x720,End of Day 1,SLS,90,A,Pass,End of Day 1,Pass,NaN,NaN,NaN,Pass,NaN,Pass,NaN,schedule_A,schedule_A,24,8,1,Screen 1,Zone1,continue_button,807.20000000298,NaN,NaN,,NaN,0,1,0,NaN,NaN,NaN,NaN,NaN,trial_left,redBox.png,redBox.png,yellowBox.png,al1_con.png,44,23,NaN,NaN,0.85,0.85,1,1,1,1,Stable,Stable,1.731,0.853,2,1.202,expert
115,1671235329058,17/12/2022 00:02:09,1671235328778,0,17/12/2022 00:02:08,109680,37,task-xjip,repeat-7g8d#1->-repeat-38fk#1,26000136,BLIND,7679970,NaN,complete,NaN,NaN,computer,Desktop or Laptop,Windows 10,Chrome 108.0.0.0,1280x720,1280x720,End of Day 1,SLS,90,A,Pass,End of Day 1,Pass,NaN,NaN,NaN,Pass,NaN,Pass,NaN,schedule_A,schedule_A,24,8,2,individual,Zone4,timelimit_screen,999.962,NaN,NaN,,NaN,0,1,0,NaN,NaN,1,NaN,NaN,trial_left,redBox.png,redBox.png,yellowBox.png,al1_con.png,44,23,NaN,NaN,0.85,0.85,1,1,1,1,Stable,Stable,1.731,0.853,2,1.202,expert
116,1671235329696,17/12/2022 00:02:09,1671235329500,0,17/12/2022 00:02:09,109680,37,task-xjip,repeat-7g8d#1->-repeat-38fk#1,26000136,BLIND,7679970,NaN,complete,NaN,NaN,computer,Desktop or Laptop,Windows 10,Chrome 108.0.0.0,1280x720,1280x720,End of Day 1,SLS,90,A,Pass,End of Day 1,Pass,NaN,NaN,NaN,Pass,NaN,Pass,NaN,schedule_A,schedule_A,24,8,3,offer,Zone2,response_button_image,714.800000011921,NaN,NaN,redBox.png,1,1,0,0,NaN,NaN,NaN,NaN,NaN,trial_left,redBox.png,redBox.png,yellowBox.png,al1_con.png,44,23,NaN,NaN,0.85,0.85,1,1,1,1,Stable,Stable,1.731,0.853,2,1.202,expert
117,1671235331702,17/12/2022 00:02:11,1671235331494,0,17/12/2022 00:02:11,109680,37,task-xjip,repeat-7g8d#1->-repeat-38fk#1,26000136,BLIND,7679970,NaN,complete,NaN,NaN,computer,Desktop or Laptop,Windows 10,Chrome 108.0.0.0,1280x720,1280x720,End of Day 1,SLS,90,A,Pass,End of Day 1,Pass,NaN,NaN,NaN,Pass,NaN,Pass,NaN,schedule_A,schedule_A,24,8,4,feedback_l,Zone7,timelimit_screen,1999.8,NaN,NaN,,NaN,0,1,0,NaN,NaN,1,NaN,NaN,trial_left,redBox.png,redBox.png,yellowBox.png,al1_con.png,44,23,NaN,NaN,0.85,0.85,1,1,1,1,Stable,Stable,1.731,0.853,2,1.202,expert
118,1671235331862,17/12/2022 00:02:11,1671235331644,0,17/12/2022 00:02:11,109680,37,task-xjip,repeat-7g8d#1->-repeat-38fk#1,26000136,BLIND,7679970,NaN,complete,NaN,NaN,computer,Desktop or Laptop,Windows 10,Chrome 108.0.0.0,1280x720,1280x720,End of Day 1,SLS,90,A,Pass,End of Day 1,Pass,NaN,NaN,NaN,Pass,NaN,Pass,NaN,schedule_A,schedule_A,24,8,6,end,Zone1,timelimit_screen,149.975000000006,NaN,NaN,,NaN,0,1,0,NaN,NaN,1,NaN,NaN,trial_left,redBox.png,redBox.png,yellowBox.png,al1_con.png,44,23,NaN,NaN,0.85,0.85,1,1,1,1,Stable,Stable,1.731,0.853,2,1.202,expert
119,1671235332793,17/12/2022 00:02:12,1671235332599,0,17/12/2022 00:02:12,109680,37,task-xjip,repeat-7g8d#1->-repeat-38fk#1,26000136,BLIND,7679970,NaN,complete,NaN,NaN,computer,Desktop or Laptop,Windows 10,Chrome 108.0.0.0,1280x720,1280x720,End of Day 1,SLS,90,A,Pass,End of Day 1,Pass,NaN,NaN,NaN,Pass,NaN,Pass,NaN,schedule_A,schedule_A,25,16,1,Screen 1,Zone1,continue_button,936.5,NaN,NaN,,NaN,0,1,0,NaN,NaN,NaN,NaN,NaN,trial_right,redBox.png,yellowBox.png,redBox.png,al1_con.png,45,24,NaN,NaN,0.85,0.85,1,1,1,0,Stable,Stable,2.109,1.798,1.508,2.782,expert
120,1671235333860,17/12/2022 00:02:13,1671235333594,0,17/12/2022 00:02:13,109680,37,task-xjip,repeat-7g8d#1->-repeat-38fk#1,26000136,BLIND,7679970,NaN,complete,NaN,NaN,computer,Desktop or Laptop,Windows 10,Chrome 108.0.0.0,1280x720,1280x720,End of Day 1,SLS,90,A,Pass,End of Day 1,Pass,NaN,NaN,NaN,Pass,NaN,Pass,NaN,schedule_A,schedule_A,25,16,2,individual,Zone4,timelimit_screen,999.858000000007,NaN,NaN,,NaN,0,1,0,NaN,NaN,1,NaN,NaN,trial_right,redBox.png,yellowBox.png,redBox.png,al1_con.png,45,24,NaN,NaN,0.85,0.85,1,1,1,0,Stable,Stable,2.109,1.798,1.508,2.782,expert
121,1671235334354,17/12/2022 00:02:14,1671235334141,0,17/12/2022 00:02:14,109680,37,task-xjip,repeat-7g8d#1->-repeat-38fk#1,26000136,BLIND,7679970,NaN,complete,NaN,NaN,computer,Desktop or Laptop,Windows 10,Chrome 108.0.0.0,1280x720,1280x720,End of Day 1,SLS,90,A,Pass,End of Day 1,Pass,NaN,NaN,NaN,Pass,NaN,Pass,NaN,schedule_A,schedule_A,25,16,3,offer,Zone3,response_button_image,539.399999991059,NaN,NaN,redBox.png,1,1,0,0,NaN,NaN,NaN,NaN,NaN,trial_right,redBox.png,yellowBox.png,redBox.png,al1_con.png,45,24,NaN,NaN,0.85,0.85,1,1,1,0,Stable,Stable,2.109,1.798,1.508,2.782,expert
122,1671235336336,17/12/2022 00:02:16,1671235336127,0,17/12/2022 00:02:16,109680,37,task-xjip,repeat-7g8d#1->-repeat-38fk#1,26000136,BLIND,7679970,NaN,complete,NaN,NaN,computer,Desktop or Laptop,Windows 10,Chrome 108.0.0.0,1280x720,1280x720,End of Day 1,SLS,90,A,Pass,End of Day 1,Pass,NaN,NaN,NaN,Pass,NaN,Pass,NaN,schedule_A,schedule_A,25,16,5,feedback_r,Zone7,timelimit_screen,1999.75599999999,NaN,NaN,,NaN,0,1,0,NaN,NaN,1,NaN,NaN,trial_right,redBox.png,yellowBox.png,redBox.png,al1_con.png,45,24,NaN,NaN,0.85,0.85,1,1,1,0,Stable,Stable,2.109,1.798,1.508,2.782,expert
123,1671235336478,17/12/2022 00:02:16,1671235336277,0,17/12/2022 00:02:16,109680,37,task-xjip,repeat-7g8d#1->-repeat-38fk#1,26000136,BLIND,7679970,NaN,complete,NaN,NaN,computer,Desktop or Laptop,Windows 10,Chrome 108.0.0.0,1280x720,1280x720,End of Day 1,SLS,90,A,Pass,End of Day 1,Pass,NaN,NaN,NaN,Pass,NaN,Pass,NaN,schedule_A,schedule_A,25,16,6,end,Zone1,timelimit_screen,150.030999999988,NaN,NaN,,NaN,0,1,0,NaN,NaN,1,NaN,NaN,trial_right,redBox.png,yellowBox.png,redBox.png,al1_con.png,45,24,NaN,NaN,0.85,0.85,1,1,1,0,Stable,Stable,2.109,1.798,1.508,2.782,expert
124,1671235337753,17/12/2022 00:02:17,1671235337551,0,17/12/2022 00:02:17,109680,37,task-xjip,repeat-7g8d#1->-repeat-38fk#1,26000136,BLIND,7679970,NaN,complete,NaN,NaN,computer,Desktop or Laptop,Windows 10,Chrome 108.0.0.0,1280x720,1280x720,End of Day 1,SLS,90,A,Pass,End of Day 1,Pass,NaN,NaN,NaN,Pass,NaN,Pass,NaN,schedule_A,schedule_A,26,9,1,Screen 1,Zone1,continue_button,1260.29999999702,NaN,NaN,,NaN,0,1,0,NaN,NaN,NaN,NaN,NaN,trial_left,redBox.png,redBox.png,yellowBox.png,al1_con.png,46,25,NaN,NaN,0.85,0.85,1,1,1,1,Stable,Stable,2.916,1.294,1.962,2.361,expert
125,1671235338751,17/12/2022 00:02:18,1671235338543,0,17/12/2022 00:02:18,109680,37,task-xjip,repeat-7g8d#1->-repeat-38fk#1,26000136,BLIND,7679970,NaN,complete,NaN,NaN,computer,Desktop or Laptop,Windows 10,Chrome 108.0.0.0,1280x720,1280x720,End of Day 1,SLS,90,A,Pass,End of Day 1,Pass,NaN,NaN,NaN,Pass,NaN,Pass,NaN,schedule_A,schedule_A,26,9,2,individual,Zone4,timelimit_screen,999.867999999988,NaN,NaN,,NaN,0,1,0,NaN,NaN,1,NaN,NaN,trial_left,redBox.png,redBox.png,yellowBox.png,al1_con.png,46,25,NaN,NaN,0.85,0.85,1,1,1,1,Stable,Stable,2.916,1.294,1.962,2.361,expert
126,1671235339471,17/12/2022 00:02:19,1671235339190,0,17/12/2022 00:02:19,109680,37,task-xjip,repeat-7g8d#1->-repeat-38fk#1,26000136,BLIND,7679970,NaN,complete,NaN,NaN,computer,Desktop or Laptop,Windows 10,Chrome 108.0.0.0,1280x720,1280x720,End of Day 1,SLS,90,A,Pass,End of Day 1,Pass,NaN,NaN,NaN,Pass,NaN,Pass,NaN,schedule_A,schedule_A,26,9,3,offer,Zone2,response_button_image,639.29999999702,NaN,NaN,redBox.png,1,1,0,0,NaN,NaN,NaN,NaN,NaN,trial_left,redBox.png,redBox.png,yellowBox.png,al1_con.png,46,25,NaN,NaN,0.85,0.85,1,1,1,1,Stable,Stable,2.916,1.294,1.962,2.361,expert
127,1671235341389,17/12/2022 00:02:21,1671235341176,0,17/12/2022 00:02:21,109680,37,task-xjip,repeat-7g8d#1->-repeat-38fk#1,26000136,BLIND,7679970,NaN,complete,NaN,NaN,computer,Desktop or Laptop,Windows 10,Chrome 108.0.0.0,1280x720,1280x720,End of Day 1,SLS,90,A,Pass,End of Day 1,Pass,NaN,NaN,NaN,Pass,NaN,Pass,NaN,schedule_A,schedule_A,26,9,4,feedback_l,Zone7,timelimit_screen,1999.745,NaN,NaN,,NaN,0,1,0,NaN,NaN,1,NaN,NaN,trial_left,redBox.png,redBox.png,yellowBox.png,al1_con.png,46,25,NaN,NaN,0.85,0.85,1,1,1,1,Stable,Stable,2.916,1.294,1.962,2.361,expert
128,1671235341540,17/12/2022 00:02:21,1671235341326,0,17/12/2022 00:02:21,109680,37,task-xjip,repeat-7g8d#1->-repeat-38fk#1,26000136,BLIND,7679970,NaN,complete,NaN,NaN,computer,Desktop or Laptop,Windows 10,Chrome 108.0.0.0,1280x720,1280x720,End of Day 1,SLS,90,A,Pass,End of Day 1,Pass,NaN,NaN,NaN,Pass,NaN,Pass,NaN,schedule_A,schedule_A,26,9,6,end,Zone1,timelimit_screen,149.956000000006,NaN,NaN,,NaN,0,1,0,NaN,NaN,1,NaN,NaN,trial_left,redBox.png,redBox.png,yellowBox.png,al1_con.png,46,25,NaN,NaN,0.85,0.85,1,1,1,1,Stable,Stable,2.916,1.294,1.962,2.361,expert
129,1671235342522,17/12/2022 00:02:22,1671235342310,0,17/12/2022 00:02:22,109680,37,task-xjip,repeat-7g8d#1->-repeat-38fk#1,26000136,BLIND,7679970,NaN,complete,NaN,NaN,computer,Desktop or Laptop,Windows 10,Chrome 108.0.0.0,1280x720,1280x720,End of Day 1,SLS,90,A,Pass,End of Day 1,Pass,NaN,NaN,NaN,Pass,NaN,Pass,NaN,schedule_A,schedule_A,27,17,1,Screen 1,Zone1,continue_button,969.600000008941,NaN,NaN,,NaN,0,1,0,NaN,NaN,NaN,NaN,NaN,trial_right,redBox.png,yellowBox.png,redBox.png,al1_con.png,47,26,NaN,NaN,0.85,0.85,1,1,1,0,Stable,Stable,2.487,1.697,1.13,1.286,expert
130,1671235343508,17/12/2022 00:02:23,1671235343309,0,17/12/2022 00:02:23,109680,37,task-xjip,repeat-7g8d#1->-repeat-38fk#1,26000136,BLIND,7679970,NaN,complete,NaN,NaN,computer,Desktop or Laptop,Windows 10,Chrome 108.0.0.0,1280x720,1280x720,End of Day 1,SLS,90,A,Pass,End of Day 1,Pass,NaN,NaN,NaN,Pass,NaN,Pass,NaN,schedule_A,schedule_A,27,17,2,individual,Zone4,timelimit_screen,999.850000000006,NaN,NaN,,NaN,0,1,0,NaN,NaN,1,NaN,NaN,trial_right,redBox.png,yellowBox.png,redBox.png,al1_con.png,47,26,NaN,NaN,0.85,0.85,1,1,1,0,Stable,Stable,2.487,1.697,1.13,1.286,expert
131,1671235344101,17/12/2022 00:02:24,1671235343904,0,17/12/2022 00:02:23,109680,37,task-xjip,repeat-7g8d#1->-repeat-38fk#1,26000136,BLIND,7679970,NaN,complete,NaN,NaN,computer,Desktop or Laptop,Windows 10,Chrome 108.0.0.0,1280x720,1280x720,End of Day 1,SLS,90,A,Pass,End of Day 1,Pass,NaN,NaN,NaN,Pass,NaN,Pass,NaN,schedule_A,schedule_A,27,17,3,offer,Zone3,response_button_image,586.5,NaN,NaN,redBox.png,1,1,0,0,NaN,NaN,NaN,NaN,NaN,trial_right,redBox.png,yellowBox.png,redBox.png,al1_con.png,47,26,NaN,NaN,0.85,0.85,1,1,1,0,Stable,Stable,2.487,1.697,1.13,1.286,expert
132,1671235346105,17/12/2022 00:02:26,1671235345892,0,17/12/2022 00:02:25,109680,37,task-xjip,repeat-7g8d#1->-repeat-38fk#1,26000136,BLIND,7679970,NaN,complete,NaN,NaN,computer,Desktop or Laptop,Windows 10,Chrome 108.0.0.0,1280x720,1280x720,End of Day 1,SLS,90,A,Pass,End of Day 1,Pass,NaN,NaN,NaN,Pass,NaN,Pass,NaN,schedule_A,schedule_A,27,17,5,feedback_r,Zone7,timelimit_screen,1999.72099999999,NaN,NaN,,NaN,0,1,0,NaN,NaN,1,NaN,NaN,trial_right,redBox.png,yellowBox.png,redBox.png,al1_con.png,47,26,NaN,NaN,0.85,0.85,1,1,1,0,Stable,Stable,2.487,1.697,1.13,1.286,expert
133,1671235346252,17/12/2022 00:02:26,1671235346042,0,17/12/2022 00:02:26,109680,37,task-xjip,repeat-7g8d#1->-repeat-38fk#1,26000136,BLIND,7679970,NaN,complete,NaN,NaN,computer,Desktop or Laptop,Windows 10,Chrome 108.0.0.0,1280x720,1280x720,End of Day 1,SLS,90,A,Pass,End of Day 1,Pass,NaN,NaN,NaN,Pass,NaN,Pass,NaN,schedule_A,schedule_A,27,17,6,end,Zone1,timelimit_screen,150.075000000012,NaN,NaN,,NaN,0,1,0,NaN,NaN,1,NaN,NaN,trial_right,redBox.png,yellowBox.png,redBox.png,al1_con.png,47,26,NaN,NaN,0.85,0.85,1,1,1,0,Stable,Stable,2.487,1.697,1.13,1.286,expert
134,1671235347280,17/12/2022 00:02:27,1671235347058,0,17/12/2022 00:02:27,109680,37,task-xjip,repeat-7g8d#1->-repeat-38fk#1,26000136,BLIND,7679970,NaN,complete,NaN,NaN,computer,Desktop or Laptop,Windows 10,Chrome 108.0.0.0,1280x720,1280x720,End of Day 1,SLS,90,A,Pass,End of Day 1,Pass,NaN,NaN,NaN,Pass,NaN,Pass,NaN,schedule_A,schedule_A,28,10,1,Screen 1,Zone1,continue_button,1000.70000000298,NaN,NaN,,NaN,0,1,0,NaN,NaN,NaN,NaN,NaN,trial_left,redBox.png,redBox.png,yellowBox.png,al1_con.png,48,27,NaN,NaN,0.85,0.85,1,1,1,1,Stable,Stable,3.824,1.634,0.992,2.244,expert
135,1671235348251,17/12/2022 00:02:28,1671235348042,0,17/12/2022 00:02:28,109680,37,task-xjip,repeat-7g8d#1->-repeat-38fk#1,26000136,BLIND,7679970,NaN,complete,NaN,NaN,computer,Desktop or Laptop,Windows 10,Chrome 108.0.0.0,1280x720,1280x720,End of Day 1,SLS,90,A,Pass,End of Day 1,Pass,NaN,NaN,NaN,Pass,NaN,Pass,NaN,schedule_A,schedule_A,28,10,2,individual,Zone4,timelimit_screen,999.767999999982,NaN,NaN,,NaN,0,1,0,NaN,NaN,1,NaN,NaN,trial_left,redBox.png,redBox.png,yellowBox.png,al1_con.png,48,27,NaN,NaN,0.85,0.85,1,1,1,1,Stable,Stable,3.824,1.634,0.992,2.244,expert
136,1671235349024,17/12/2022 00:02:29,1671235348726,0,17/12/2022 00:02:28,109680,37,task-xjip,repeat-7g8d#1->-repeat-38fk#1,26000136,BLIND,7679970,NaN,complete,NaN,NaN,computer,Desktop or Laptop,Windows 10,Chrome 108.0.0.0,1280x720,1280x720,End of Day 1,SLS,90,A,Pass,End of Day 1,Pass,NaN,NaN,NaN,Pass,NaN,Pass,NaN,schedule_A,schedule_A,28,10,3,offer,Zone2,response_button_image,675.90000000596,NaN,NaN,redBox.png,1,1,0,0,NaN,NaN,NaN,NaN,NaN,trial_left,redBox.png,redBox.png,yellowBox.png,al1_con.png,48,27,NaN,NaN,0.85,0.85,1,1,1,1,Stable,Stable,3.824,1.634,0.992,2.244,expert
137,1671235350932,17/12/2022 00:02:30,1671235350725,0,17/12/2022 00:02:30,109680,37,task-xjip,repeat-7g8d#1->-repeat-38fk#1,26000136,BLIND,7679970,NaN,complete,NaN,NaN,computer,Desktop or Laptop,Windows 10,Chrome 108.0.0.0,1280x720,1280x720,End of Day 1,SLS,90,A,Pass,End of Day 1,Pass,NaN,NaN,NaN,Pass,NaN,Pass,NaN,schedule_A,schedule_A,28,10,4,feedback_l,Zone7,timelimit_screen,1999.745,NaN,NaN,,NaN,0,1,0,NaN,NaN,1,NaN,NaN,trial_left,redBox.png,redBox.png,yellowBox.png,al1_con.png,48,27,NaN,NaN,0.85,0.85,1,1,1,1,Stable,Stable,3.824,1.634,0.992,2.244,expert
138,1671235351083,17/12/2022 00:02:31,1671235350874,0,17/12/2022 00:02:30,109680,37,task-xjip,repeat-7g8d#1->-repeat-38fk#1,26000136,BLIND,7679970,NaN,complete,NaN,NaN,computer,Desktop or Laptop,Windows 10,Chrome 108.0.0.0,1280x720,1280x720,End of Day 1,SLS,90,A,Pass,End of Day 1,Pass,NaN,NaN,NaN,Pass,NaN,Pass,NaN,schedule_A,schedule_A,28,10,6,end,Zone1,timelimit_screen,149.900999999983,NaN,NaN,,NaN,0,1,0,NaN,NaN,1,NaN,NaN,trial_left,redBox.png,redBox.png,yellowBox.png,al1_con.png,48,27,NaN,NaN,0.85,0.85,1,1,1,1,Stable,Stable,3.824,1.634,0.992,2.244,expert
139,1671235352045,17/12/2022 00:02:32,1671235351837,0,17/12/2022 00:02:31,109680,37,task-xjip,repeat-7g8d#1->-repeat-38fk#1,26000136,BLIND,7679970,NaN,complete,NaN,NaN,computer,Desktop or Laptop,Windows 10,Chrome 108.0.0.0,1280x720,1280x720,End of Day 1,SLS,90,A,Pass,End of Day 1,Pass,NaN,NaN,NaN,Pass,NaN,Pass,NaN,schedule_A,schedule_A,29,11,1,Screen 1,Zone1,continue_button,947.20000000298,NaN,NaN,,NaN,0,1,0,NaN,NaN,NaN,NaN,NaN,trial_left,redBox.png,redBox.png,yellowBox.png,al1_con.png,49,28,NaN,NaN,0.85,0.85,1,1,1,1,Stable,Stable,2.84,1.937,1.723,2.815,expert
140,1671235353039,17/12/2022 00:02:33,1671235352824,0,17/12/2022 00:02:32,109680,37,task-xjip,repeat-7g8d#1->-repeat-38fk#1,26000136,BLIND,7679970,NaN,complete,NaN,NaN,computer,Desktop or Laptop,Windows 10,Chrome 108.0.0.0,1280x720,1280x720,End of Day 1,SLS,90,A,Pass,End of Day 1,Pass,NaN,NaN,NaN,Pass,NaN,Pass,NaN,schedule_A,schedule_A,29,11,2,individual,Zone4,timelimit_screen,999.861000000004,NaN,NaN,,NaN,0,1,0,NaN,NaN,1,NaN,NaN,trial_left,redBox.png,redBox.png,yellowBox.png,al1_con.png,49,28,NaN,NaN,0.85,0.85,1,1,1,1,Stable,Stable,2.84,1.937,1.723,2.815,expert
141,1671235353742,17/12/2022 00:02:33,1671235353533,0,17/12/2022 00:02:33,109680,37,task-xjip,repeat-7g8d#1->-repeat-38fk#1,26000136,BLIND,7679970,NaN,complete,NaN,NaN,computer,Desktop or Laptop,Windows 10,Chrome 108.0.0.0,1280x720,1280x720,End of Day 1,SLS,90,A,Pass,End of Day 1,Pass,NaN,NaN,NaN,Pass,NaN,Pass,NaN,schedule_A,schedule_A,29,11,3,offer,Zone2,response_button_image,700.199999988079,NaN,NaN,redBox.png,1,1,0,0,NaN,NaN,NaN,NaN,NaN,trial_left,redBox.png,redBox.png,yellowBox.png,al1_con.png,49,28,NaN,NaN,0.85,0.85,1,1,1,1,Stable,Stable,2.84,1.937,1.723,2.815,expert
142,1671235355738,17/12/2022 00:02:35,1671235355524,0,17/12/2022 00:02:35,109680,37,task-xjip,repeat-7g8d#1->-repeat-38fk#1,26000136,BLIND,7679970,NaN,complete,NaN,NaN,computer,Desktop or Laptop,Windows 10,Chrome 108.0.0.0,1280x720,1280x720,End of Day 1,SLS,90,A,Pass,End of Day 1,Pass,NaN,NaN,NaN,Pass,NaN,Pass,NaN,schedule_A,schedule_A,29,11,4,feedback_l,Zone7,timelimit_screen,1999.62299999999,NaN,NaN,,NaN,0,1,0,NaN,NaN,1,NaN,NaN,trial_left,redBox.png,redBox.png,yellowBox.png,al1_con.png,49,28,NaN,NaN,0.85,0.85,1,1,1,1,Stable,Stable,2.84,1.937,1.723,2.815,expert
143,1671235355883,17/12/2022 00:02:35,1671235355673,0,17/12/2022 00:02:35,109680,37,task-xjip,repeat-7g8d#1->-repeat-38fk#1,26000136,BLIND,7679970,NaN,complete,NaN,NaN,computer,Desktop or Laptop,Windows 10,Chrome 108.0.0.0,1280x720,1280x720,End of Day 1,SLS,90,A,Pass,End of Day 1,Pass,NaN,NaN,NaN,Pass,NaN,Pass,NaN,schedule_A,schedule_A,29,11,6,end,Zone1,timelimit_screen,149.942999999999,NaN,NaN,,NaN,0,1,0,NaN,NaN,1,NaN,NaN,trial_left,redBox.png,redBox.png,yellowBox.png,al1_con.png,49,28,NaN,NaN,0.85,0.85,1,1,1,1,Stable,Stable,2.84,1.937,1.723,2.815,expert
144,1671235356742,17/12/2022 00:02:36,1671235356531,0,17/12/2022 00:02:36,109680,37,task-xjip,repeat-7g8d#1->-repeat-38fk#1,26000136,BLIND,7679970,NaN,complete,NaN,NaN,computer,Desktop or Laptop,Windows 10,Chrome 108.0.0.0,1280x720,1280x720,End of Day 1,SLS,90,A,Pass,End of Day 1,Pass,NaN,NaN,NaN,Pass,NaN,Pass,NaN,schedule_A,schedule_A,30,18,1,Screen 1,Zone1,continue_button,842,NaN,NaN,,NaN,0,1,0,NaN,NaN,NaN,NaN,NaN,trial_right,redBox.png,yellowBox.png,redBox.png,al1_con.png,50,29,NaN,NaN,0.85,0.85,1,1,1,0,Stable,Stable,2.941,1.71,0.664,1.336,expert
145,1671235357727,17/12/2022 00:02:37,1671235357524,0,17/12/2022 00:02:37,109680,37,task-xjip,repeat-7g8d#1->-repeat-38fk#1,26000136,BLIND,7679970,NaN,complete,NaN,NaN,computer,Desktop or Laptop,Windows 10,Chrome 108.0.0.0,1280x720,1280x720,End of Day 1,SLS,90,A,Pass,End of Day 1,Pass,NaN,NaN,NaN,Pass,NaN,Pass,NaN,schedule_A,schedule_A,30,18,2,individual,Zone4,timelimit_screen,999.861000000004,NaN,NaN,,NaN,0,1,0,NaN,NaN,1,NaN,NaN,trial_right,redBox.png,yellowBox.png,redBox.png,al1_con.png,50,29,NaN,NaN,0.85,0.85,1,1,1,0,Stable,Stable,2.941,1.71,0.664,1.336,expert
146,1671235358239,17/12/2022 00:02:38,1671235358031,0,17/12/2022 00:02:38,109680,37,task-xjip,repeat-7g8d#1->-repeat-38fk#1,26000136,BLIND,7679970,NaN,complete,NaN,NaN,computer,Desktop or Laptop,Windows 10,Chrome 108.0.0.0,1280x720,1280x720,End of Day 1,SLS,90,A,Pass,End of Day 1,Pass,NaN,NaN,NaN,Pass,NaN,Pass,NaN,schedule_A,schedule_A,30,18,3,offer,Zone3,response_button_image,498,NaN,NaN,redBox.png,1,1,0,0,NaN,NaN,NaN,NaN,NaN,trial_right,redBox.png,yellowBox.png,redBox.png,al1_con.png,50,29,NaN,NaN,0.85,0.85,1,1,1,0,Stable,Stable,2.941,1.71,0.664,1.336,expert
147,1671235360313,17/12/2022 00:02:40,1671235360023,0,17/12/2022 00:02:40,109680,37,task-xjip,repeat-7g8d#1->-repeat-38fk#1,26000136,BLIND,7679970,NaN,complete,NaN,NaN,computer,Desktop or Laptop,Windows 10,Chrome 108.0.0.0,1280x720,1280x720,End of Day 1,SLS,90,A,Pass,End of Day 1,Pass,NaN,NaN,NaN,Pass,NaN,Pass,NaN,schedule_A,schedule_A,30,18,5,feedback_r,Zone7,timelimit_screen,1999.712,NaN,NaN,,NaN,0,1,0,NaN,NaN,1,NaN,NaN,trial_right,redBox.png,yellowBox.png,redBox.png,al1_con.png,50,29,NaN,NaN,0.85,0.85,1,1,1,0,Stable,Stable,2.941,1.71,0.664,1.336,expert
148,1671235360393,17/12/2022 00:02:40,1671235360173,0,17/12/2022 00:02:40,109680,37,task-xjip,repeat-7g8d#1->-repeat-38fk#1,26000136,BLIND,7679970,NaN,complete,NaN,NaN,computer,Desktop or Laptop,Windows 10,Chrome 108.0.0.0,1280x720,1280x720,End of Day 1,SLS,90,A,Pass,End of Day 1,Pass,NaN,NaN,NaN,Pass,NaN,Pass,NaN,schedule_A,schedule_A,30,18,6,end,Zone1,timelimit_screen,150.008999999991,NaN,NaN,,NaN,0,1,0,NaN,NaN,1,NaN,NaN,trial_right,redBox.png,yellowBox.png,redBox.png,al1_con.png,50,29,NaN,NaN,0.85,0.85,1,1,1,0,Stable,Stable,2.941,1.71,0.664,1.336,expert
149,1671235361612,17/12/2022 00:02:41,1671235361400,0,17/12/2022 00:02:41,109680,37,task-xjip,repeat-7g8d#1->-repeat-38fk#1,26000136,BLIND,7679970,NaN,complete,NaN,NaN,computer,Desktop or Laptop,Windows 10,Chrome 108.0.0.0,1280x720,1280x720,End of Day 1,SLS,90,A,Pass,End of Day 1,Pass,NaN,NaN,NaN,Pass,NaN,Pass,NaN,schedule_A,schedule_A,31,12,1,Screen 1,Zone1,continue_button,1212.40000000596,NaN,NaN,,NaN,0,1,0,NaN,NaN,NaN,NaN,NaN,trial_left,redBox.png,redBox.png,yellowBox.png,al1_con.png,61,30,NaN,NaN,0.85,0.85,1,1,1,1,Stable,Stable,2.79,1.735,0.601,2.345,expert
150,1671235362596,17/12/2022 00:02:42,1671235362389,0,17/12/2022 00:02:42,109680,37,task-xjip,repeat-7g8d#1->-repeat-38fk#1,26000136,BLIND,7679970,NaN,complete,NaN,NaN,computer,Desktop or Laptop,Windows 10,Chrome 108.0.0.0,1280x720,1280x720,End of Day 1,SLS,90,A,Pass,End of Day 1,Pass,NaN,NaN,NaN,Pass,NaN,Pass,NaN,schedule_A,schedule_A,31,12,2,individual,Zone4,timelimit_screen,999.886999999988,NaN,NaN,,NaN,0,1,0,NaN,NaN,1,NaN,NaN,trial_left,redBox.png,redBox.png,yellowBox.png,al1_con.png,61,30,NaN,NaN,0.85,0.85,1,1,1,1,Stable,Stable,2.79,1.735,0.601,2.345,expert
151,1671235363211,17/12/2022 00:02:43,1671235363005,0,17/12/2022 00:02:43,109680,37,task-xjip,repeat-7g8d#1->-repeat-38fk#1,26000136,BLIND,7679970,NaN,complete,NaN,NaN,computer,Desktop or Laptop,Windows 10,Chrome 108.0.0.0,1280x720,1280x720,End of Day 1,SLS,90,A,Pass,End of Day 1,Pass,NaN,NaN,NaN,Pass,NaN,Pass,NaN,schedule_A,schedule_A,31,12,3,offer,Zone2,response_button_image,607.20000000298,NaN,NaN,redBox.png,1,1,0,0,NaN,NaN,NaN,NaN,NaN,trial_left,redBox.png,redBox.png,yellowBox.png,al1_con.png,61,30,NaN,NaN,0.85,0.85,1,1,1,1,Stable,Stable,2.79,1.735,0.601,2.345,expert
152,1671235365207,17/12/2022 00:02:45,1671235364990,0,17/12/2022 00:02:44,109680,37,task-xjip,repeat-7g8d#1->-repeat-38fk#1,26000136,BLIND,7679970,NaN,complete,NaN,NaN,computer,Desktop or Laptop,Windows 10,Chrome 108.0.0.0,1280x720,1280x720,End of Day 1,SLS,90,A,Pass,End of Day 1,Pass,NaN,NaN,NaN,Pass,NaN,Pass,NaN,schedule_A,schedule_A,31,12,4,feedback_l,Zone7,timelimit_screen,1999.71100000001,NaN,NaN,,NaN,0,1,0,NaN,NaN,1,NaN,NaN,trial_left,redBox.png,redBox.png,yellowBox.png,al1_con.png,61,30,NaN,NaN,0.85,0.85,1,1,1,1,Stable,Stable,2.79,1.735,0.601,2.345,expert
153,1671235365350,17/12/2022 00:02:45,1671235365139,0,17/12/2022 00:02:45,109680,37,task-xjip,repeat-7g8d#1->-repeat-38fk#1,26000136,BLIND,7679970,NaN,complete,NaN,NaN,computer,Desktop or Laptop,Windows 10,Chrome 108.0.0.0,1280x720,1280x720,End of Day 1,SLS,90,A,Pass,End of Day 1,Pass,NaN,NaN,NaN,Pass,NaN,Pass,NaN,schedule_A,schedule_A,31,12,6,end,Zone1,timelimit_screen,149.959999999992,NaN,NaN,,NaN,0,1,0,NaN,NaN,1,NaN,NaN,trial_left,redBox.png,redBox.png,yellowBox.png,al1_con.png,61,30,NaN,NaN,0.85,0.85,1,1,1,1,Stable,Stable,2.79,1.735,0.601,2.345,expert
154,1671235366472,17/12/2022 00:02:46,1671235366259,0,17/12/2022 00:02:46,109680,37,task-xjip,repeat-7g8d#1->-repeat-38fk#1,26000136,BLIND,7679970,NaN,complete,NaN,NaN,computer,Desktop or Laptop,Windows 10,Chrome 108.0.0.0,1280x720,1280x720,End of Day 1,SLS,90,A,Pass,End of Day 1,Pass,NaN,NaN,NaN,Pass,NaN,Pass,NaN,schedule_A,schedule_A,32,19,1,Screen 1,Zone1,continue_button,1104.60000000894,NaN,NaN,,NaN,0,1,0,NaN,NaN,NaN,NaN,NaN,trial_right,redBox.png,redBox.png,yellowBox.png,al1_con.png,62,31,NaN,NaN,0.85,0.15,1,0,0,1,Stable,Volatile,2.538,1.672,1.143,1.555,expert
155,1671235367467,17/12/2022 00:02:47,1671235367255,0,17/12/2022 00:02:47,109680,37,task-xjip,repeat-7g8d#1->-repeat-38fk#1,26000136,BLIND,7679970,NaN,complete,NaN,NaN,computer,Desktop or Laptop,Windows 10,Chrome 108.0.0.0,1280x720,1280x720,End of Day 1,SLS,90,A,Pass,End of Day 1,Pass,NaN,NaN,NaN,Pass,NaN,Pass,NaN,schedule_A,schedule_A,32,19,2,individual,Zone4,timelimit_screen,999.860000000015,NaN,NaN,,NaN,0,1,0,NaN,NaN,1,NaN,NaN,trial_right,redBox.png,redBox.png,yellowBox.png,al1_con.png,62,31,NaN,NaN,0.85,0.15,1,0,0,1,Stable,Volatile,2.538,1.672,1.143,1.555,expert
156,1671235368295,17/12/2022 00:02:48,1671235368079,0,17/12/2022 00:02:48,109680,37,task-xjip,repeat-7g8d#1->-repeat-38fk#1,26000136,BLIND,7679970,NaN,complete,NaN,NaN,computer,Desktop or Laptop,Windows 10,Chrome 108.0.0.0,1280x720,1280x720,End of Day 1,SLS,90,A,Pass,End of Day 1,Pass,NaN,NaN,NaN,Pass,NaN,Pass,NaN,schedule_A,schedule_A,32,19,3,offer,Zone3,response_button_image,814.90000000596,NaN,NaN,yellowBox.png,1,0,1,0,NaN,NaN,NaN,NaN,NaN,trial_right,redBox.png,redBox.png,yellowBox.png,al1_con.png,62,31,NaN,NaN,0.85,0.15,1,0,0,1,Stable,Volatile,2.538,1.672,1.143,1.555,expert
157,1671235370364,17/12/2022 00:02:50,1671235370072,0,17/12/2022 00:02:50,109680,37,task-xjip,repeat-7g8d#1->-repeat-38fk#1,26000136,BLIND,7679970,NaN,complete,NaN,NaN,computer,Desktop or Laptop,Windows 10,Chrome 108.0.0.0,1280x720,1280x720,End of Day 1,SLS,90,A,Pass,End of Day 1,Pass,NaN,NaN,NaN,Pass,NaN,Pass,NaN,schedule_A,schedule_A,32,19,5,feedback_r,Zone7,timelimit_screen,1999.723,NaN,NaN,,NaN,0,1,0,NaN,NaN,1,NaN,NaN,trial_right,redBox.png,redBox.png,yellowBox.png,al1_con.png,62,31,NaN,NaN,0.85,0.15,1,0,0,1,Stable,Volatile,2.538,1.672,1.143,1.555,expert
158,1671235370458,17/12/2022 00:02:50,1671235370222,0,17/12/2022 00:02:50,109680,37,task-xjip,repeat-7g8d#1->-repeat-38fk#1,26000136,BLIND,7679970,NaN,complete,NaN,NaN,computer,Desktop or Laptop,Windows 10,Chrome 108.0.0.0,1280x720,1280x720,End of Day 1,SLS,90,A,Pass,End of Day 1,Pass,NaN,NaN,NaN,Pass,NaN,Pass,NaN,schedule_A,schedule_A,32,19,6,end,Zone1,timelimit_screen,149.981999999989,NaN,NaN,,NaN,0,1,0,NaN,NaN,1,NaN,NaN,trial_right,redBox.png,redBox.png,yellowBox.png,al1_con.png,62,31,NaN,NaN,0.85,0.15,1,0,0,1,Stable,Volatile,2.538,1.672,1.143,1.555,expert
159,1671235371326,17/12/2022 00:02:51,1671235371108,0,17/12/2022 00:02:51,109680,37,task-xjip,repeat-7g8d#1->-repeat-38fk#1,26000136,BLIND,7679970,NaN,complete,NaN,NaN,computer,Desktop or Laptop,Windows 10,Chrome 108.0.0.0,1280x720,1280x720,End of Day 1,SLS,90,A,Pass,End of Day 1,Pass,NaN,NaN,NaN,Pass,NaN,Pass,NaN,schedule_A,schedule_A,33,13,1,Screen 1,Zone1,continue_button,870.70000000298,NaN,NaN,,NaN,0,1,0,NaN,NaN,NaN,NaN,NaN,trial_left,redBox.png,yellowBox.png,redBox.png,al1_con.png,63,32,NaN,NaN,0.85,0.15,1,0,0,0,Stable,Volatile,2.739,1.13,0.815,1.387,expert
160,1671235372316,17/12/2022 00:02:52,1671235372105,0,17/12/2022 00:02:52,109680,37,task-xjip,repeat-7g8d#1->-repeat-38fk#1,26000136,BLIND,7679970,NaN,complete,NaN,NaN,computer,Desktop or Laptop,Windows 10,Chrome 108.0.0.0,1280x720,1280x720,End of Day 1,SLS,90,A,Pass,End of Day 1,Pass,NaN,NaN,NaN,Pass,NaN,Pass,NaN,schedule_A,schedule_A,33,13,2,individual,Zone4,timelimit_screen,999.854000000021,NaN,NaN,,NaN,0,1,0,NaN,NaN,1,NaN,NaN,trial_left,redBox.png,yellowBox.png,redBox.png,al1_con.png,63,32,NaN,NaN,0.85,0.15,1,0,0,0,Stable,Volatile,2.739,1.13,0.815,1.387,expert
161,1671235373145,17/12/2022 00:02:53,1671235372935,0,17/12/2022 00:02:52,109680,37,task-xjip,repeat-7g8d#1->-repeat-38fk#1,26000136,BLIND,7679970,NaN,complete,NaN,NaN,computer,Desktop or Laptop,Windows 10,Chrome 108.0.0.0,1280x720,1280x720,End of Day 1,SLS,90,A,Pass,End of Day 1,Pass,NaN,NaN,NaN,Pass,NaN,Pass,NaN,schedule_A,schedule_A,33,13,3,offer,Zone2,response_button_image,821.100000008941,NaN,NaN,yellowBox.png,1,0,1,0,NaN,NaN,NaN,NaN,NaN,trial_left,redBox.png,yellowBox.png,redBox.png,al1_con.png,63,32,NaN,NaN,0.85,0.15,1,0,0,0,Stable,Volatile,2.739,1.13,0.815,1.387,expert
162,1671235375138,17/12/2022 00:02:55,1671235374921,0,17/12/2022 00:02:54,109680,37,task-xjip,repeat-7g8d#1->-repeat-38fk#1,26000136,BLIND,7679970,NaN,complete,NaN,NaN,computer,Desktop or Laptop,Windows 10,Chrome 108.0.0.0,1280x720,1280x720,End of Day 1,SLS,90,A,Pass,End of Day 1,Pass,NaN,NaN,NaN,Pass,NaN,Pass,NaN,schedule_A,schedule_A,33,13,4,feedback_l,Zone7,timelimit_screen,1999.758,NaN,NaN,,NaN,0,1,0,NaN,NaN,1,NaN,NaN,trial_left,redBox.png,yellowBox.png,redBox.png,al1_con.png,63,32,NaN,NaN,0.85,0.15,1,0,0,0,Stable,Volatile,2.739,1.13,0.815,1.387,expert
163,1671235375282,17/12/2022 00:02:55,1671235375071,0,17/12/2022 00:02:55,109680,37,task-xjip,repeat-7g8d#1->-repeat-38fk#1,26000136,BLIND,7679970,NaN,complete,NaN,NaN,computer,Desktop or Laptop,Windows 10,Chrome 108.0.0.0,1280x720,1280x720,End of Day 1,SLS,90,A,Pass,End of Day 1,Pass,NaN,NaN,NaN,Pass,NaN,Pass,NaN,schedule_A,schedule_A,33,13,6,end,Zone1,timelimit_screen,149.945999999996,NaN,NaN,,NaN,0,1,0,NaN,NaN,1,NaN,NaN,trial_left,redBox.png,yellowBox.png,redBox.png,al1_con.png,63,32,NaN,NaN,0.85,0.15,1,0,0,0,Stable,Volatile,2.739,1.13,0.815,1.387,expert
164,1671235377458,17/12/2022 00:02:57,1671235377241,0,17/12/2022 00:02:57,109680,37,task-xjip,repeat-7g8d#1->-repeat-38fk#1,26000136,BLIND,7679970,NaN,complete,NaN,NaN,computer,Desktop or Laptop,Windows 10,Chrome 108.0.0.0,1280x720,1280x720,End of Day 1,SLS,90,A,Pass,End of Day 1,Pass,NaN,NaN,NaN,Pass,NaN,Pass,NaN,schedule_A,schedule_A,34,20,1,Screen 1,Zone1,continue_button,2153.89999999106,NaN,NaN,,NaN,0,1,0,NaN,NaN,NaN,NaN,NaN,trial_right,redBox.png,redBox.png,yellowBox.png,al1_con.png,64,33,NaN,NaN,0.85,0.15,1,0,0,1,Stable,Volatile,3.672,0.828,0.513,2.059,expert
165,1671235378448,17/12/2022 00:02:58,1671235378237,0,17/12/2022 00:02:58,109680,37,task-xjip,repeat-7g8d#1->-repeat-38fk#1,26000136,BLIND,7679970,NaN,complete,NaN,NaN,computer,Desktop or Laptop,Windows 10,Chrome 108.0.0.0,1280x720,1280x720,End of Day 1,SLS,90,A,Pass,End of Day 1,Pass,NaN,NaN,NaN,Pass,NaN,Pass,NaN,schedule_A,schedule_A,34,20,2,individual,Zone4,timelimit_screen,999.85500000001,NaN,NaN,,NaN,0,1,0,NaN,NaN,1,NaN,NaN,trial_right,redBox.png,redBox.png,yellowBox.png,al1_con.png,64,33,NaN,NaN,0.85,0.15,1,0,0,1,Stable,Volatile,3.672,0.828,0.513,2.059,expert
166,1671235379102,17/12/2022 00:02:59,1671235378824,0,17/12/2022 00:02:58,109680,37,task-xjip,repeat-7g8d#1->-repeat-38fk#1,26000136,BLIND,7679970,NaN,complete,NaN,NaN,computer,Desktop or Laptop,Windows 10,Chrome 108.0.0.0,1280x720,1280x720,End of Day 1,SLS,90,A,Pass,End of Day 1,Pass,NaN,NaN,NaN,Pass,NaN,Pass,NaN,schedule_A,schedule_A,34,20,3,offer,Zone2,response_button_image,578.70000000298,NaN,NaN,redBox.png,1,1,0,0,NaN,NaN,NaN,NaN,NaN,trial_right,redBox.png,redBox.png,yellowBox.png,al1_con.png,64,33,NaN,NaN,0.85,0.15,1,0,0,1,Stable,Volatile,3.672,0.828,0.513,2.059,expert
167,1671235381035,17/12/2022 00:03:01,1671235380820,0,17/12/2022 00:03:00,109680,37,task-xjip,repeat-7g8d#1->-repeat-38fk#1,26000136,BLIND,7679970,NaN,complete,NaN,NaN,computer,Desktop or Laptop,Windows 10,Chrome 108.0.0.0,1280x720,1280x720,End of Day 1,SLS,90,A,Pass,End of Day 1,Pass,NaN,NaN,NaN,Pass,NaN,Pass,NaN,schedule_A,schedule_A,34,20,4,feedback_l,Zone7,timelimit_screen,1999.71299999999,NaN,NaN,,NaN,0,1,0,NaN,NaN,1,NaN,NaN,trial_right,redBox.png,redBox.png,yellowBox.png,al1_con.png,64,33,NaN,NaN,0.85,0.15,1,0,0,1,Stable,Volatile,3.672,0.828,0.513,2.059,expert
168,1671235381180,17/12/2022 00:03:01,1671235380970,0,17/12/2022 00:03:00,109680,37,task-xjip,repeat-7g8d#1->-repeat-38fk#1,26000136,BLIND,7679970,NaN,complete,NaN,NaN,computer,Desktop or Laptop,Windows 10,Chrome 108.0.0.0,1280x720,1280x720,End of Day 1,SLS,90,A,Pass,End of Day 1,Pass,NaN,NaN,NaN,Pass,NaN,Pass,NaN,schedule_A,schedule_A,34,20,6,end,Zone1,timelimit_screen,150.010000000009,NaN,NaN,,NaN,0,1,0,NaN,NaN,1,NaN,NaN,trial_right,redBox.png,redBox.png,yellowBox.png,al1_con.png,64,33,NaN,NaN,0.85,0.15,1,0,0,1,Stable,Volatile,3.672,0.828,0.513,2.059,expert
169,1671235382535,17/12/2022 00:03:02,1671235382325,0,17/12/2022 00:03:02,109680,37,task-xjip,repeat-7g8d#1->-repeat-38fk#1,26000136,BLIND,7679970,NaN,complete,NaN,NaN,computer,Desktop or Laptop,Windows 10,Chrome 108.0.0.0,1280x720,1280x720,End of Day 1,SLS,90,A,Pass,End of Day 1,Pass,NaN,NaN,NaN,Pass,NaN,Pass,NaN,schedule_A,schedule_A,35,14,1,Screen 1,Zone1,continue_button,1339.79999999702,NaN,NaN,,NaN,0,1,0,NaN,NaN,NaN,NaN,NaN,trial_left,redBox.png,redBox.png,yellowBox.png,al1_con.png,65,34,NaN,NaN,0.85,0.15,1,1,1,1,Stable,Volatile,2.261,0.866,1.811,2.849,expert
170,1671235383521,17/12/2022 00:03:03,1671235383320,0,17/12/2022 00:03:03,109680,37,task-xjip,repeat-7g8d#1->-repeat-38fk#1,26000136,BLIND,7679970,NaN,complete,NaN,NaN,computer,Desktop or Laptop,Windows 10,Chrome 108.0.0.0,1280x720,1280x720,End of Day 1,SLS,90,A,Pass,End of Day 1,Pass,NaN,NaN,NaN,Pass,NaN,Pass,NaN,schedule_A,schedule_A,35,14,2,individual,Zone4,timelimit_screen,999.86599999998,NaN,NaN,,NaN,0,1,0,NaN,NaN,1,NaN,NaN,trial_left,redBox.png,redBox.png,yellowBox.png,al1_con.png,65,34,NaN,NaN,0.85,0.15,1,1,1,1,Stable,Volatile,2.261,0.866,1.811,2.849,expert
171,1671235384372,17/12/2022 00:03:04,1671235384179,0,17/12/2022 00:03:04,109680,37,task-xjip,repeat-7g8d#1->-repeat-38fk#1,26000136,BLIND,7679970,NaN,complete,NaN,NaN,computer,Desktop or Laptop,Windows 10,Chrome 108.0.0.0,1280x720,1280x720,End of Day 1,SLS,90,A,Pass,End of Day 1,Pass,NaN,NaN,NaN,Pass,NaN,Pass,NaN,schedule_A,schedule_A,35,14,3,offer,bluebox,response_button_image,851.100000008941,NaN,NaN,yellowBox.png,1,0,1,0,NaN,NaN,NaN,NaN,NaN,trial_left,redBox.png,redBox.png,yellowBox.png,al1_con.png,65,34,NaN,NaN,0.85,0.15,1,1,1,1,Stable,Volatile,2.261,0.866,1.811,2.849,expert
172,1671235386383,17/12/2022 00:03:06,1671235386170,0,17/12/2022 00:03:06,109680,37,task-xjip,repeat-7g8d#1->-repeat-38fk#1,26000136,BLIND,7679970,NaN,complete,NaN,NaN,computer,Desktop or Laptop,Windows 10,Chrome 108.0.0.0,1280x720,1280x720,End of Day 1,SLS,90,A,Pass,End of Day 1,Pass,NaN,NaN,NaN,Pass,NaN,Pass,NaN,schedule_A,schedule_A,35,14,5,feedback_r,Zone7,timelimit_screen,1999.78599999999,NaN,NaN,,NaN,0,1,0,NaN,NaN,1,NaN,NaN,trial_left,redBox.png,redBox.png,yellowBox.png,al1_con.png,65,34,NaN,NaN,0.85,0.15,1,1,1,1,Stable,Volatile,2.261,0.866,1.811,2.849,expert
173,1671235386513,17/12/2022 00:03:06,1671235386319,0,17/12/2022 00:03:06,109680,37,task-xjip,repeat-7g8d#1->-repeat-38fk#1,26000136,BLIND,7679970,NaN,complete,NaN,NaN,computer,Desktop or Laptop,Windows 10,Chrome 108.0.0.0,1280x720,1280x720,End of Day 1,SLS,90,A,Pass,End of Day 1,Pass,NaN,NaN,NaN,Pass,NaN,Pass,NaN,schedule_A,schedule_A,35,14,6,end,Zone1,timelimit_screen,149.915000000008,NaN,NaN,,NaN,0,1,0,NaN,NaN,1,NaN,NaN,trial_left,redBox.png,redBox.png,yellowBox.png,al1_con.png,65,34,NaN,NaN,0.85,0.15,1,1,1,1,Stable,Volatile,2.261,0.866,1.811,2.849,expert
174,1671235387583,17/12/2022 00:03:07,1671235387382,0,17/12/2022 00:03:07,109680,37,task-xjip,repeat-7g8d#1->-repeat-38fk#1,26000136,BLIND,7679970,NaN,complete,NaN,NaN,computer,Desktop or Laptop,Windows 10,Chrome 108.0.0.0,1280x720,1280x720,End of Day 1,SLS,90,A,Pass,End of Day 1,Pass,NaN,NaN,NaN,Pass,NaN,Pass,NaN,schedule_A,schedule_A,36,21,1,Screen 1,Zone1,continue_button,1047.29999999702,NaN,NaN,,NaN,0,1,0,NaN,NaN,NaN,NaN,NaN,trial_right,redBox.png,redBox.png,yellowBox.png,al1_con.png,66,35,NaN,NaN,0.85,0.15,1,0,0,1,Stable,Volatile,1.807,1.029,1.634,2.092,expert
