EventIndex,UTCTimestamp,UTCDate,LocalTimestamp,LocalTimezone,LocalDate,ExperimentID,ExperimentVersion,TreeNodeKey,RepeatKey,ScheduleID,ParticipantPublicID,ParticipantPrivateID,ParticipantStartingGroup,ParticipantStatus,ParticipantCompletionCode,ParticipantExternalSessionID,ParticipantDeviceType,ParticipantDevice,ParticipantOS,ParticipantBrowser,ParticipantMonitorSize,ParticipantViewportSize,Checkpoint,TaskName,TaskVersion,randomiser_6z9f,branch_kxy7,checkpoint_tqwf,branch_rtog,branch_7dgx,checkpoint_mqen,branch_yx2c,branch_3n8o,branch_f1s6,branch_x6l7,branch_21hs,Spreadsheet,SpreadsheetName,SpreadsheetRow,TrialNumber,ScreenNumber,ScreenName,ZoneName,ZoneType,ReactionTime,ReactionOnset,ResponseType,Response,Attempt,Correct,Incorrect,Dishonest,XCoordinate,YCoordinate,TimedOut,randomise_blocks,randomise_trials,display,ANSWER,left_button,right_button,advice,orderno,trialno,ShowProgressBar,image,prob_blue_corr,prob_group_corr,corr_ans,group_corr,group_choice,blue_pos,indiv_vol,soc_vol,ITI_1,ITI_2,ITI_3,ITI_4,condition
1,1671326272055,18/12/2022 01:17:52,1671326271950,0,18/12/2022 01:17:51,109680,37,task-qrxs,repeat-7g8d#1->-repeat-38fk#1->-repeat-qjz7#1->-repeat-5t6i#1,26007700,BLIND,7679970,NaN,complete,NaN,NaN,computer,Desktop or Laptop,Windows 10,Chrome 108.0.0.0,1280x720,1280x720,End of Day 1,SLS,90,A,Pass,End of Day 1,Pass,NaN,NaN,NaN,Pass,NaN,Pass,NaN,schedule_B,,NaN,NaN,NaN,,,,NaN,NaN,NaN,,NaN,0,1,0,NaN,NaN,NaN,NaN,NaN,,,,,,NaN,NaN,NaN,NaN,NaN,NaN,NaN,NaN,NaN,NaN,,,NaN,NaN,NaN,NaN,
2,1671326273738,18/12/2022 01:17:53,1671326273665,0,18/12/2022 01:17:53,109680,37,task-qrxs,repeat-7g8d#1->-repeat-38fk#1->-repeat-qjz7#1->-repeat-5t6i#1,26007700,BLIND,7679970,NaN,complete,NaN,NaN,computer,Desktop or Laptop,Windows 10,Chrome 108.0.0.0,1280x720,1280x720,End of Day 1,SLS,90,A,Pass,End of Day 1,Pass,NaN,NaN,NaN,Pass,NaN,Pass,NaN,schedule_B,schedule_B,1,1,1,Screen 1,Zone1,continue_button,1545.20000001788,NaN,NaN,,NaN,0,1,0,NaN,NaN,NaN,NaN,NaN,getReadyb,,,,,1,NaN,NaN,NaN,NaN,NaN,NaN,NaN,NaN,NaN,,,NaN,NaN,NaN,NaN,
3,1671326275360,18/12/2022 01:17:55,1671326275294,0,18/12/2022 01:17:55,109680,37,task-qrxs,repeat-7g8d#1->-repeat-38fk#1->-repeat-qjz7#1->-repeat-5t6i#1,26007700,BLIND,7679970,NaN,complete,NaN,NaN,computer,Desktop or Laptop,Windows 10,Chrome 108.0.0.0,1280x720,1280x720,End of Day 1,SLS,90,A,Pass,End of Day 1,Pass,NaN,NaN,NaN,Pass,NaN,Pass,NaN,schedule_B,schedule_B,1,1,2,Screen 2,Zone1,continue_button,1618.5,NaN,NaN,,NaN,0,1,0,NaN,NaN,NaN,NaN,NaN,getReadyb,,,,,1,NaN,NaN,NaN,NaN,NaN,NaN,NaN,NaN,NaN,,,NaN,NaN,NaN,NaN,
4,1671326277357,18/12/2022 01:17:57,1671326277281,0,18/12/2022 01:17:57,109680,37,task-qrxs,repeat-7g8d#1->-repeat-38fk#1->-repeat-qjz7#1->-repeat-5t6i#1,26007700,BLIND,7679970,NaN,complete,NaN,NaN,computer,Desktop or Laptop,Windows 10,Chrome 108.0.0.0,1280x720,1280x720,End of Day 1,SLS,90,A,Pass,End of Day 1,Pass,NaN,NaN,NaN,Pass,NaN,Pass,NaN,schedule_B,schedule_B,2,1,1,Screen 1,Zone1,continue_button,1947.40000000596,NaN,NaN,,NaN,0,1,0,NaN,NaN,NaN,NaN,NaN,trial_right,greenBox.png,greenBox.png,blueBox.png,al2_uncon.png,2,1,NaN,NaN,0.85,0.15,0,0,1,0,Stable,Stable,3.471,0.525,1.66,2.529,inexpert
5,1671326278313,18/12/2022 01:17:58,1671326278265,0,18/12/2022 01:17:58,109680,37,task-qrxs,repeat-7g8d#1->-repeat-38fk#1->-repeat-qjz7#1->-repeat-5t6i#1,26007700,BLIND,7679970,NaN,complete,NaN,NaN,computer,Desktop or Laptop,Windows 10,Chrome 108.0.0.0,1280x720,1280x720,End of Day 1,SLS,90,A,Pass,End of Day 1,Pass,NaN,NaN,NaN,Pass,NaN,Pass,NaN,schedule_B,schedule_B,2,1,2,individual,Zone4,timelimit_screen,999.455,NaN,NaN,,NaN,0,1,0,NaN,NaN,1,NaN,NaN,trial_right,greenBox.png,greenBox.png,blueBox.png,al2_uncon.png,2,1,NaN,NaN,0.85,0.15,0,0,1,0,Stable,Stable,3.471,0.525,1.66,2.529,inexpert
6,1671326279904,18/12/2022 01:17:59,1671326279855,0,18/12/2022 01:17:59,109680,37,task-qrxs,repeat-7g8d#1->-repeat-38fk#1->-repeat-qjz7#1->-repeat-5t6i#1,26007700,BLIND,7679970,NaN,complete,NaN,NaN,computer,Desktop or Laptop,Windows 10,Chrome 108.0.0.0,1280x720,1280x720,End of Day 1,SLS,90,A,Pass,End of Day 1,Pass,NaN,NaN,NaN,Pass,NaN,Pass,NaN,schedule_B,schedule_B,2,1,3,offer,Zone3,response_button_image,1569,NaN,NaN,blueBox.png,1,0,1,0,NaN,NaN,NaN,NaN,NaN,trial_right,greenBox.png,greenBox.png,blueBox.png,al2_uncon.png,2,1,NaN,NaN,0.85,0.15,0,0,1,0,Stable,Stable,3.471,0.525,1.66,2.529,inexpert
7,1671326281902,18/12/2022 01:18:01,1671326281849,0,18/12/2022 01:18:01,109680,37,task-qrxs,repeat-7g8d#1->-repeat-38fk#1->-repeat-qjz7#1->-repeat-5t6i#1,26007700,BLIND,7679970,NaN,complete,NaN,NaN,computer,Desktop or Laptop,Windows 10,Chrome 108.0.0.0,1280x720,1280x720,End of Day 1,SLS,90,A,Pass,End of Day 1,Pass,NaN,NaN,NaN,Pass,NaN,Pass,NaN,schedule_B,schedule_B,2,1,5,feedback_r,Zone7,timelimit_screen,1999.697,NaN,NaN,,NaN,0,1,0,NaN,NaN,1,NaN,NaN,trial_right,greenBox.png,greenBox.png,blueBox.png,al2_uncon.png,2,1,NaN,NaN,0.85,0.15,0,0,1,0,Stable,Stable,3.471,0.525,1.66,2.529,inexpert
8,1671326282047,18/12/2022 01:18:02,1671326281997,0,18/12/2022 01:18:01,109680,37,task-qrxs,repeat-7g8d#1->-repeat-38fk#1->-repeat-qjz7#1->-repeat-5t6i#1,26007700,BLIND,7679970,NaN,complete,NaN,NaN,computer,Desktop or Laptop,Windows 10,Chrome 108.0.0.0,1280x720,1280x720,End of Day 1,SLS,90,A,Pass,End of Day 1,Pass,NaN,NaN,NaN,Pass,NaN,Pass,NaN,schedule_B,schedule_B,2,1,6,end,Zone1,timelimit_screen,150.421,NaN,NaN,,NaN,0,1,0,NaN,NaN,1,NaN,NaN,trial_right,greenBox.png,greenBox.png,blueBox.png,al2_uncon.png,2,1,NaN,NaN,0.85,0.15,0,0,1,0,Stable,Stable,3.471,0.525,1.66,2.529,inexpert
9,1671326283455,18/12/2022 01:18:03,1671326283404,0,18/12/2022 01:18:03,109680,37,task-qrxs,repeat-7g8d#1->-repeat-38fk#1->-repeat-qjz7#1->-repeat-5t6i#1,26007700,BLIND,7679970,NaN,complete,NaN,NaN,computer,Desktop or Laptop,Windows 10,Chrome 108.0.0.0,1280x720,1280x720,End of Day 1,SLS,90,A,Pass,End of Day 1,Pass,NaN,NaN,NaN,Pass,NaN,Pass,NaN,schedule_B,schedule_B,3,1,1,Screen 1,Zone1,continue_button,1369.29999998212,NaN,NaN,,NaN,0,1,0,NaN,NaN,NaN,NaN,NaN,trial_left,blueBox.png,greenBox.png,blueBox.png,al2_uncon.png,3,2,NaN,NaN,0.85,0.15,1,0,0,0,Stable,Stable,1.782,1.168,1.168,2.462,inexpert
10,1671326284451,18/12/2022 01:18:04,1671326284398,0,18/12/2022 01:18:04,109680,37,task-qrxs,repeat-7g8d#1->-repeat-38fk#1->-repeat-qjz7#1->-repeat-5t6i#1,26007700,BLIND,7679970,NaN,complete,NaN,NaN,computer,Desktop or Laptop,Windows 10,Chrome 108.0.0.0,1280x720,1280x720,End of Day 1,SLS,90,A,Pass,End of Day 1,Pass,NaN,NaN,NaN,Pass,NaN,Pass,NaN,schedule_B,schedule_B,3,1,2,individual,Zone4,timelimit_screen,1000.331,NaN,NaN,,NaN,0,1,0,NaN,NaN,1,NaN,NaN,trial_left,blueBox.png,greenBox.png,blueBox.png,al2_uncon.png,3,2,NaN,NaN,0.85,0.15,1,0,0,0,Stable,Stable,1.782,1.168,1.168,2.462,inexpert
11,1671326286804,18/12/2022 01:18:06,1671326286750,0,18/12/2022 01:18:06,109680,37,task-qrxs,repeat-7g8d#1->-repeat-38fk#1->-repeat-qjz7#1->-repeat-5t6i#1,26007700,BLIND,7679970,NaN,complete,NaN,NaN,computer,Desktop or Laptop,Windows 10,Chrome 108.0.0.0,1280x720,1280x720,End of Day 1,SLS,90,A,Pass,End of Day 1,Pass,NaN,NaN,NaN,Pass,NaN,Pass,NaN,schedule_B,schedule_B,3,1,3,offer,bluebox,response_button_image,2333.20000001788,NaN,NaN,blueBox.png,1,1,0,0,NaN,NaN,NaN,NaN,NaN,trial_left,blueBox.png,greenBox.png,blueBox.png,al2_uncon.png,3,2,NaN,NaN,0.85,0.15,1,0,0,0,Stable,Stable,1.782,1.168,1.168,2.462,inexpert
12,1671326288800,18/12/2022 01:18:08,1671326288747,0,18/12/2022 01:18:08,109680,37,task-qrxs,repeat-7g8d#1->-repeat-38fk#1->-repeat-qjz7#1->-repeat-5t6i#1,26007700,BLIND,7679970,NaN,complete,NaN,NaN,computer,Desktop or Laptop,Windows 10,Chrome 108.0.0.0,1280x720,1280x720,End of Day 1,SLS,90,A,Pass,End of Day 1,Pass,NaN,NaN,NaN,Pass,NaN,Pass,NaN,schedule_B,schedule_B,3,1,5,feedback_r,Zone7,timelimit_screen,1999.178,NaN,NaN,,NaN,0,1,0,NaN,NaN,1,NaN,NaN,trial_left,blueBox.png,greenBox.png,blueBox.png,al2_uncon.png,3,2,NaN,NaN,0.85,0.15,1,0,0,0,Stable,Stable,1.782,1.168,1.168,2.462,inexpert
13,1671326288954,18/12/2022 01:18:08,1671326288897,0,18/12/2022 01:18:08,109680,37,task-qrxs,repeat-7g8d#1->-repeat-38fk#1->-repeat-qjz7#1->-repeat-5t6i#1,26007700,BLIND,7679970,NaN,complete,NaN,NaN,computer,Desktop or Laptop,Windows 10,Chrome 108.0.0.0,1280x720,1280x720,End of Day 1,SLS,90,A,Pass,End of Day 1,Pass,NaN,NaN,NaN,Pass,NaN,Pass,NaN,schedule_B,schedule_B,3,1,6,end,Zone1,timelimit_screen,150.550000000003,NaN,NaN,,NaN,0,1,0,NaN,NaN,1,NaN,NaN,trial_left,blueBox.png,greenBox.png,blueBox.png,al2_uncon.png,3,2,NaN,NaN,0.85,0.15,1,0,0,0,Stable,Stable,1.782,1.168,1.168,2.462,inexpert
14,1671326290158,18/12/2022 01:18:10,1671326290103,0,18/12/2022 01:18:10,109680,37,task-qrxs,repeat-7g8d#1->-repeat-38fk#1->-repeat-qjz7#1->-repeat-5t6i#1,26007700,BLIND,7679970,NaN,complete,NaN,NaN,computer,Desktop or Laptop,Windows 10,Chrome 108.0.0.0,1280x720,1280x720,End of Day 1,SLS,90,A,Pass,End of Day 1,Pass,NaN,NaN,NaN,Pass,NaN,Pass,NaN,schedule_B,schedule_B,4,2,1,Screen 1,Zone1,continue_button,1173.5,NaN,NaN,,NaN,0,1,0,NaN,NaN,NaN,NaN,NaN,trial_left,blueBox.png,greenBox.png,blueBox.png,al2_uncon.png,4,3,NaN,NaN,0.85,0.15,1,0,0,0,Stable,Stable,1.983,1.181,0.538,1.588,inexpert
15,1671326291148,18/12/2022 01:18:11,1671326291096,0,18/12/2022 01:18:11,109680,37,task-qrxs,repeat-7g8d#1->-repeat-38fk#1->-repeat-qjz7#1->-repeat-5t6i#1,26007700,BLIND,7679970,NaN,complete,NaN,NaN,computer,Desktop or Laptop,Windows 10,Chrome 108.0.0.0,1280x720,1280x720,End of Day 1,SLS,90,A,Pass,End of Day 1,Pass,NaN,NaN,NaN,Pass,NaN,Pass,NaN,schedule_B,schedule_B,4,2,2,individual,Zone4,timelimit_screen,999.993999999999,NaN,NaN,,NaN,0,1,0,NaN,NaN,1,NaN,NaN,trial_left,blueBox.png,greenBox.png,blueBox.png,al2_uncon.png,4,3,NaN,NaN,0.85,0.15,1,0,0,0,Stable,Stable,1.983,1.181,0.538,1.588,inexpert
16,1671326292077,18/12/2022 01:18:12,1671326292017,0,18/12/2022 01:18:12,109680,37,task-qrxs,repeat-7g8d#1->-repeat-38fk#1->-repeat-qjz7#1->-repeat-5t6i#1,26007700,BLIND,7679970,NaN,complete,NaN,NaN,computer,Desktop or Laptop,Windows 10,Chrome 108.0.0.0,1280x720,1280x720,End of Day 1,SLS,90,A,Pass,End of Day 1,Pass,NaN,NaN,NaN,Pass,NaN,Pass,NaN,schedule_B,schedule_B,4,2,3,offer,bluebox,response_button_image,899.600000023842,NaN,NaN,blueBox.png,1,1,0,0,NaN,NaN,NaN,NaN,NaN,trial_left,blueBox.png,greenBox.png,blueBox.png,al2_uncon.png,4,3,NaN,NaN,0.85,0.15,1,0,0,0,Stable,Stable,1.983,1.181,0.538,1.588,inexpert
17,1671326294074,18/12/2022 01:18:14,1671326294018,0,18/12/2022 01:18:14,109680,37,task-qrxs,repeat-7g8d#1->-repeat-38fk#1->-repeat-qjz7#1->-repeat-5t6i#1,26007700,BLIND,7679970,NaN,complete,NaN,NaN,computer,Desktop or Laptop,Windows 10,Chrome 108.0.0.0,1280x720,1280x720,End of Day 1,SLS,90,A,Pass,End of Day 1,Pass,NaN,NaN,NaN,Pass,NaN,Pass,NaN,schedule_B,schedule_B,4,2,5,feedback_r,Zone7,timelimit_screen,1999.725,NaN,NaN,,NaN,0,1,0,NaN,NaN,1,NaN,NaN,trial_left,blueBox.png,greenBox.png,blueBox.png,al2_uncon.png,4,3,NaN,NaN,0.85,0.15,1,0,0,0,Stable,Stable,1.983,1.181,0.538,1.588,inexpert
18,1671326294220,18/12/2022 01:18:14,1671326294162,0,18/12/2022 01:18:14,109680,37,task-qrxs,repeat-7g8d#1->-repeat-38fk#1->-repeat-qjz7#1->-repeat-5t6i#1,26007700,BLIND,7679970,NaN,complete,NaN,NaN,computer,Desktop or Laptop,Windows 10,Chrome 108.0.0.0,1280x720,1280x720,End of Day 1,SLS,90,A,Pass,End of Day 1,Pass,NaN,NaN,NaN,Pass,NaN,Pass,NaN,schedule_B,schedule_B,4,2,6,end,Zone1,timelimit_screen,150.006999999998,NaN,NaN,,NaN,0,1,0,NaN,NaN,1,NaN,NaN,trial_left,blueBox.png,greenBox.png,blueBox.png,al2_uncon.png,4,3,NaN,NaN,0.85,0.15,1,0,0,0,Stable,Stable,1.983,1.181,0.538,1.588,inexpert
19,1671326295185,18/12/2022 01:18:15,1671326295131,0,18/12/2022 01:18:15,109680,37,task-qrxs,repeat-7g8d#1->-repeat-38fk#1->-repeat-qjz7#1->-repeat-5t6i#1,26007700,BLIND,7679970,NaN,complete,NaN,NaN,computer,Desktop or Laptop,Windows 10,Chrome 108.0.0.0,1280x720,1280x720,End of Day 1,SLS,90,A,Pass,End of Day 1,Pass,NaN,NaN,NaN,Pass,NaN,Pass,NaN,schedule_B,schedule_B,5,2,1,Screen 1,Zone1,continue_button,933,NaN,NaN,,NaN,0,1,0,NaN,NaN,NaN,NaN,NaN,trial_right,greenBox.png,greenBox.png,blueBox.png,al2_uncon.png,5,4,NaN,NaN,0.85,0.15,0,0,1,0,Stable,Stable,1.529,0.891,1.004,1,inexpert
20,1671326296175,18/12/2022 01:18:16,1671326296129,0,18/12/2022 01:18:16,109680,37,task-qrxs,repeat-7g8d#1->-repeat-38fk#1->-repeat-qjz7#1->-repeat-5t6i#1,26007700,BLIND,7679970,NaN,complete,NaN,NaN,computer,Desktop or Laptop,Windows 10,Chrome 108.0.0.0,1280x720,1280x720,End of Day 1,SLS,90,A,Pass,End of Day 1,Pass,NaN,NaN,NaN,Pass,NaN,Pass,NaN,schedule_B,schedule_B,5,2,2,individual,Zone4,timelimit_screen,999.858,NaN,NaN,,NaN,0,1,0,NaN,NaN,1,NaN,NaN,trial_right,greenBox.png,greenBox.png,blueBox.png,al2_uncon.png,5,4,NaN,NaN,0.85,0.15,0,0,1,0,Stable,Stable,1.529,0.891,1.004,1,inexpert
21,1671326297089,18/12/2022 01:18:17,1671326297039,0,18/12/2022 01:18:17,109680,37,task-qrxs,repeat-7g8d#1->-repeat-38fk#1->-repeat-qjz7#1->-repeat-5t6i#1,26007700,BLIND,7679970,NaN,complete,NaN,NaN,computer,Desktop or Laptop,Windows 10,Chrome 108.0.0.0,1280x720,1280x720,End of Day 1,SLS,90,A,Pass,End of Day 1,Pass,NaN,NaN,NaN,Pass,NaN,Pass,NaN,schedule_B,schedule_B,5,2,3,offer,Zone2,response_button_image,891.300000011921,NaN,NaN,greenBox.png,1,1,0,0,NaN,NaN,NaN,NaN,NaN,trial_right,greenBox.png,greenBox.png,blueBox.png,al2_uncon.png,5,4,NaN,NaN,0.85,0.15,0,0,1,0,Stable,Stable,1.529,0.891,1.004,1,inexpert
22,1671326299090,18/12/2022 01:18:19,1671326299029,0,18/12/2022 01:18:19,109680,37,task-qrxs,repeat-7g8d#1->-repeat-38fk#1->-repeat-qjz7#1->-repeat-5t6i#1,26007700,BLIND,7679970,NaN,complete,NaN,NaN,computer,Desktop or Laptop,Windows 10,Chrome 108.0.0.0,1280x720,1280x720,End of Day 1,SLS,90,A,Pass,End of Day 1,Pass,NaN,NaN,NaN,Pass,NaN,Pass,NaN,schedule_B,schedule_B,5,2,4,feedback_l,Zone7,timelimit_screen,1999.734,NaN,NaN,,NaN,0,1,0,NaN,NaN,1,NaN,NaN,trial_right,greenBox.png,greenBox.png,blueBox.png,al2_uncon.png,5,4,NaN,NaN,0.85,0.15,0,0,1,0,Stable,Stable,1.529,0.891,1.004,1,inexpert
23,1671326299230,18/12/2022 01:18:19,1671326299178,0,18/12/2022 01:18:19,109680,37,task-qrxs,repeat-7g8d#1->-repeat-38fk#1->-repeat-qjz7#1->-repeat-5t6i#1,26007700,BLIND,7679970,NaN,complete,NaN,NaN,computer,Desktop or Laptop,Windows 10,Chrome 108.0.0.0,1280x720,1280x720,End of Day 1,SLS,90,A,Pass,End of Day 1,Pass,NaN,NaN,NaN,Pass,NaN,Pass,NaN,schedule_B,schedule_B,5,2,6,end,Zone1,timelimit_screen,149.527999999998,NaN,NaN,,NaN,0,1,0,NaN,NaN,1,NaN,NaN,trial_right,greenBox.png,greenBox.png,blueBox.png,al2_uncon.png,5,4,NaN,NaN,0.85,0.15,0,0,1,0,Stable,Stable,1.529,0.891,1.004,1,inexpert
24,1671326300336,18/12/2022 01:18:20,1671326300290,0,18/12/2022 01:18:20,109680,37,task-qrxs,repeat-7g8d#1->-repeat-38fk#1->-repeat-qjz7#1->-repeat-5t6i#1,26007700,BLIND,7679970,NaN,complete,NaN,NaN,computer,Desktop or Laptop,Windows 10,Chrome 108.0.0.0,1280x720,1280x720,End of Day 1,SLS,90,A,Pass,End of Day 1,Pass,NaN,NaN,NaN,Pass,NaN,Pass,NaN,schedule_B,schedule_B,6,3,1,Screen 1,Zone1,continue_button,1067.5,NaN,NaN,,NaN,0,1,0,NaN,NaN,NaN,NaN,NaN,trial_left,blueBox.png,greenBox.png,blueBox.png,al2_uncon.png,6,5,NaN,NaN,0.85,0.15,1,0,0,0,Stable,Stable,1.832,1.118,0.752,1.79,inexpert
25,1671326301328,18/12/2022 01:18:21,1671326301278,0,18/12/2022 01:18:21,109680,37,task-qrxs,repeat-7g8d#1->-repeat-38fk#1->-repeat-qjz7#1->-repeat-5t6i#1,26007700,BLIND,7679970,NaN,complete,NaN,NaN,computer,Desktop or Laptop,Windows 10,Chrome 108.0.0.0,1280x720,1280x720,End of Day 1,SLS,90,A,Pass,End of Day 1,Pass,NaN,NaN,NaN,Pass,NaN,Pass,NaN,schedule_B,schedule_B,6,3,2,individual,Zone4,timelimit_screen,1000.318,NaN,NaN,,NaN,0,1,0,NaN,NaN,1,NaN,NaN,trial_left,blueBox.png,greenBox.png,blueBox.png,al2_uncon.png,6,5,NaN,NaN,0.85,0.15,1,0,0,0,Stable,Stable,1.832,1.118,0.752,1.79,inexpert
26,1671326302304,18/12/2022 01:18:22,1671326302248,0,18/12/2022 01:18:22,109680,37,task-qrxs,repeat-7g8d#1->-repeat-38fk#1->-repeat-qjz7#1->-repeat-5t6i#1,26007700,BLIND,7679970,NaN,complete,NaN,NaN,computer,Desktop or Laptop,Windows 10,Chrome 108.0.0.0,1280x720,1280x720,End of Day 1,SLS,90,A,Pass,End of Day 1,Pass,NaN,NaN,NaN,Pass,NaN,Pass,NaN,schedule_B,schedule_B,6,3,3,offer,bluebox,response_button_image,952.899999976158,NaN,NaN,blueBox.png,1,1,0,0,NaN,NaN,NaN,NaN,NaN,trial_left,blueBox.png,greenBox.png,blueBox.png,al2_uncon.png,6,5,NaN,NaN,0.85,0.15,1,0,0,0,Stable,Stable,1.832,1.118,0.752,1.79,inexpert
27,1671326304299,18/12/2022 01:18:24,1671326304244,0,18/12/2022 01:18:24,109680,37,task-qrxs,repeat-7g8d#1->-repeat-38fk#1->-repeat-qjz7#1->-repeat-5t6i#1,26007700,BLIND,7679970,NaN,complete,NaN,NaN,computer,Desktop or Laptop,Windows 10,Chrome 108.0.0.0,1280x720,1280x720,End of Day 1,SLS,90,A,Pass,End of Day 1,Pass,NaN,NaN,NaN,Pass,NaN,Pass,NaN,schedule_B,schedule_B,6,3,5,feedback_r,Zone7,timelimit_screen,1999.72,NaN,NaN,,NaN,0,1,0,NaN,NaN,1,NaN,NaN,trial_left,blueBox.png,greenBox.png,blueBox.png,al2_uncon.png,6,5,NaN,NaN,0.85,0.15,1,0,0,0,Stable,Stable,1.832,1.118,0.752,1.79,inexpert
28,1671326304450,18/12/2022 01:18:24,1671326304395,0,18/12/2022 01:18:24,109680,37,task-qrxs,repeat-7g8d#1->-repeat-38fk#1->-repeat-qjz7#1->-repeat-5t6i#1,26007700,BLIND,7679970,NaN,complete,NaN,NaN,computer,Desktop or Laptop,Windows 10,Chrome 108.0.0.0,1280x720,1280x720,End of Day 1,SLS,90,A,Pass,End of Day 1,Pass,NaN,NaN,NaN,Pass,NaN,Pass,NaN,schedule_B,schedule_B,6,3,6,end,Zone1,timelimit_screen,150.089,NaN,NaN,,NaN,0,1,0,NaN,NaN,1,NaN,NaN,trial_left,blueBox.png,greenBox.png,blueBox.png,al2_uncon.png,6,5,NaN,NaN,0.85,0.15,1,0,0,0,Stable,Stable,1.832,1.118,0.752,1.79,inexpert
29,1671326305370,18/12/2022 01:18:25,1671326305325,0,18/12/2022 01:18:25,109680,37,task-qrxs,repeat-7g8d#1->-repeat-38fk#1->-repeat-qjz7#1->-repeat-5t6i#1,26007700,BLIND,7679970,NaN,complete,NaN,NaN,computer,Desktop or Laptop,Windows 10,Chrome 108.0.0.0,1280x720,1280x720,End of Day 1,SLS,90,A,Pass,End of Day 1,Pass,NaN,NaN,NaN,Pass,NaN,Pass,NaN,schedule_B,schedule_B,7,3,1,Screen 1,Zone1,continue_button,885.40000000596,NaN,NaN,,NaN,0,1,0,NaN,NaN,NaN,NaN,NaN,trial_right,greenBox.png,greenBox.png,blueBox.png,al2_uncon.png,7,6,NaN,NaN,0.15,0.15,0,0,1,0,Stable,Stable,3.294,0.815,1.282,2.664,inexpert
30,1671326306363,18/12/2022 01:18:26,1671326306318,0,18/12/2022 01:18:26,109680,37,task-qrxs,repeat-7g8d#1->-repeat-38fk#1->-repeat-qjz7#1->-repeat-5t6i#1,26007700,BLIND,7679970,NaN,complete,NaN,NaN,computer,Desktop or Laptop,Windows 10,Chrome 108.0.0.0,1280x720,1280x720,End of Day 1,SLS,90,A,Pass,End of Day 1,Pass,NaN,NaN,NaN,Pass,NaN,Pass,NaN,schedule_B,schedule_B,7,3,2,individual,Zone4,timelimit_screen,999.861000000004,NaN,NaN,,NaN,0,1,0,NaN,NaN,1,NaN,NaN,trial_right,greenBox.png,greenBox.png,blueBox.png,al2_uncon.png,7,6,NaN,NaN,0.15,0.15,0,0,1,0,Stable,Stable,3.294,0.815,1.282,2.664,inexpert
31,1671326307159,18/12/2022 01:18:27,1671326307113,0,18/12/2022 01:18:27,109680,37,task-qrxs,repeat-7g8d#1->-repeat-38fk#1->-repeat-qjz7#1->-repeat-5t6i#1,26007700,BLIND,7679970,NaN,complete,NaN,NaN,computer,Desktop or Laptop,Windows 10,Chrome 108.0.0.0,1280x720,1280x720,End of Day 1,SLS,90,A,Pass,End of Day 1,Pass,NaN,NaN,NaN,Pass,NaN,Pass,NaN,schedule_B,schedule_B,7,3,3,offer,Zone2,response_button_image,776.899999976158,NaN,NaN,greenBox.png,1,1,0,0,NaN,NaN,NaN,NaN,NaN,trial_right,greenBox.png,greenBox.png,blueBox.png,al2_uncon.png,7,6,NaN,NaN,0.15,0.15,0,0,1,0,Stable,Stable,3.294,0.815,1.282,2.664,inexpert
32,1671326309144,18/12/2022 01:18:29,1671326309094,0,18/12/2022 01:18:29,109680,37,task-qrxs,repeat-7g8d#1->-repeat-38fk#1->-repeat-qjz7#1->-repeat-5t6i#1,26007700,BLIND,7679970,NaN,complete,NaN,NaN,computer,Desktop or Laptop,Windows 10,Chrome 108.0.0.0,1280x720,1280x720,End of Day 1,SLS,90,A,Pass,End of Day 1,Pass,NaN,NaN,NaN,Pass,NaN,Pass,NaN,schedule_B,schedule_B,7,3,4,feedback_l,Zone7,timelimit_screen,1999.615,NaN,NaN,,NaN,0,1,0,NaN,NaN,1,NaN,NaN,trial_right,greenBox.png,greenBox.png,blueBox.png,al2_uncon.png,7,6,NaN,NaN,0.15,0.15,0,0,1,0,Stable,Stable,3.294,0.815,1.282,2.664,inexpert
33,1671326309292,18/12/2022 01:18:29,1671326309245,0,18/12/2022 01:18:29,109680,37,task-qrxs,repeat-7g8d#1->-repeat-38fk#1->-repeat-qjz7#1->-repeat-5t6i#1,26007700,BLIND,7679970,NaN,complete,NaN,NaN,computer,Desktop or Laptop,Windows 10,Chrome 108.0.0.0,1280x720,1280x720,End of Day 1,SLS,90,A,Pass,End of Day 1,Pass,NaN,NaN,NaN,Pass,NaN,Pass,NaN,schedule_B,schedule_B,7,3,6,end,Zone1,timelimit_screen,149.409999999996,NaN,NaN,,NaN,0,1,0,NaN,NaN,1,NaN,NaN,trial_right,greenBox.png,greenBox.png,blueBox.png,al2_uncon.png,7,6,NaN,NaN,0.15,0.15,0,0,1,0,Stable,Stable,3.294,0.815,1.282,2.664,inexpert
34,1671326310285,18/12/2022 01:18:30,1671326310230,0,18/12/2022 01:18:30,109680,37,task-qrxs,repeat-7g8d#1->-repeat-38fk#1->-repeat-qjz7#1->-repeat-5t6i#1,26007700,BLIND,7679970,NaN,complete,NaN,NaN,computer,Desktop or Laptop,Windows 10,Chrome 108.0.0.0,1280x720,1280x720,End of Day 1,SLS,90,A,Pass,End of Day 1,Pass,NaN,NaN,NaN,Pass,NaN,Pass,NaN,schedule_B,schedule_B,8,4,1,Screen 1,Zone1,continue_button,953.300000011921,NaN,NaN,,NaN,0,1,0,NaN,NaN,NaN,NaN,NaN,trial_left,greenBox.png,blueBox.png,greenBox.png,al2_uncon.png,8,7,NaN,NaN,0.15,0.15,0,0,1,1,Stable,Stable,3.269,1.37,1.786,2.328,inexpert
35,1671326311281,18/12/2022 01:18:31,1671326311227,0,18/12/2022 01:18:31,109680,37,task-qrxs,repeat-7g8d#1->-repeat-38fk#1->-repeat-qjz7#1->-repeat-5t6i#1,26007700,BLIND,7679970,NaN,complete,NaN,NaN,computer,Desktop or Laptop,Windows 10,Chrome 108.0.0.0,1280x720,1280x720,End of Day 1,SLS,90,A,Pass,End of Day 1,Pass,NaN,NaN,NaN,Pass,NaN,Pass,NaN,schedule_B,schedule_B,8,4,2,individual,Zone4,timelimit_screen,999.212000000007,NaN,NaN,,NaN,0,1,0,NaN,NaN,1,NaN,NaN,trial_left,greenBox.png,blueBox.png,greenBox.png,al2_uncon.png,8,7,NaN,NaN,0.15,0.15,0,0,1,1,Stable,Stable,3.269,1.37,1.786,2.328,inexpert
36,1671326311744,18/12/2022 01:18:31,1671326311697,0,18/12/2022 01:18:31,109680,37,task-qrxs,repeat-7g8d#1->-repeat-38fk#1->-repeat-qjz7#1->-repeat-5t6i#1,26007700,BLIND,7679970,NaN,complete,NaN,NaN,computer,Desktop or Laptop,Windows 10,Chrome 108.0.0.0,1280x720,1280x720,End of Day 1,SLS,90,A,Pass,End of Day 1,Pass,NaN,NaN,NaN,Pass,NaN,Pass,NaN,schedule_B,schedule_B,8,4,3,offer,bluebox,response_button_image,450.800000011921,NaN,NaN,greenBox.png,1,1,0,0,NaN,NaN,NaN,NaN,NaN,trial_left,greenBox.png,blueBox.png,greenBox.png,al2_uncon.png,8,7,NaN,NaN,0.15,0.15,0,0,1,1,Stable,Stable,3.269,1.37,1.786,2.328,inexpert
37,1671326313745,18/12/2022 01:18:33,1671326313694,0,18/12/2022 01:18:33,109680,37,task-qrxs,repeat-7g8d#1->-repeat-38fk#1->-repeat-qjz7#1->-repeat-5t6i#1,26007700,BLIND,7679970,NaN,complete,NaN,NaN,computer,Desktop or Laptop,Windows 10,Chrome 108.0.0.0,1280x720,1280x720,End of Day 1,SLS,90,A,Pass,End of Day 1,Pass,NaN,NaN,NaN,Pass,NaN,Pass,NaN,schedule_B,schedule_B,8,4,5,feedback_r,Zone7,timelimit_screen,1999.723,NaN,NaN,,NaN,0,1,0,NaN,NaN,1,NaN,NaN,trial_left,greenBox.png,blueBox.png,greenBox.png,al2_uncon.png,8,7,NaN,NaN,0.15,0.15,0,0,1,1,Stable,Stable,3.269,1.37,1.786,2.328,inexpert
38,1671326313889,18/12/2022 01:18:33,1671326313843,0,18/12/2022 01:18:33,109680,37,task-qrxs,repeat-7g8d#1->-repeat-38fk#1->-repeat-qjz7#1->-repeat-5t6i#1,26007700,BLIND,7679970,NaN,complete,NaN,NaN,computer,Desktop or Laptop,Windows 10,Chrome 108.0.0.0,1280x720,1280x720,End of Day 1,SLS,90,A,Pass,End of Day 1,Pass,NaN,NaN,NaN,Pass,NaN,Pass,NaN,schedule_B,schedule_B,8,4,6,end,Zone1,timelimit_screen,149.281999999999,NaN,NaN,,NaN,0,1,0,NaN,NaN,1,NaN,NaN,trial_left,greenBox.png,blueBox.png,greenBox.png,al2_uncon.png,8,7,NaN,NaN,0.15,0.15,0,0,1,1,Stable,Stable,3.269,1.37,1.786,2.328,inexpert
39,1671326314818,18/12/2022 01:18:34,1671326314767,0,18/12/2022 01:18:34,109680,37,task-qrxs,repeat-7g8d#1->-repeat-38fk#1->-repeat-qjz7#1->-repeat-5t6i#1,26007700,BLIND,7679970,NaN,complete,NaN,NaN,computer,Desktop or Laptop,Windows 10,Chrome 108.0.0.0,1280x720,1280x720,End of Day 1,SLS,90,A,Pass,End of Day 1,Pass,NaN,NaN,NaN,Pass,NaN,Pass,NaN,schedule_B,schedule_B,9,4,1,Screen 1,Zone1,continue_button,889.90000000596,NaN,NaN,,NaN,0,1,0,NaN,NaN,NaN,NaN,NaN,trial_right,blueBox.png,blueBox.png,greenBox.png,al2_uncon.png,9,8,NaN,NaN,0.15,0.15,1,0,0,1,Stable,Stable,3.975,0.576,1.256,1.807,inexpert
40,1671326315796,18/12/2022 01:18:35,1671326315752,0,18/12/2022 01:18:35,109680,37,task-qrxs,repeat-7g8d#1->-repeat-38fk#1->-repeat-qjz7#1->-repeat-5t6i#1,26007700,BLIND,7679970,NaN,complete,NaN,NaN,computer,Desktop or Laptop,Windows 10,Chrome 108.0.0.0,1280x720,1280x720,End of Day 1,SLS,90,A,Pass,End of Day 1,Pass,NaN,NaN,NaN,Pass,NaN,Pass,NaN,schedule_B,schedule_B,9,4,2,individual,Zone4,timelimit_screen,999.182999999997,NaN,NaN,,NaN,0,1,0,NaN,NaN,1,NaN,NaN,trial_right,blueBox.png,blueBox.png,greenBox.png,al2_uncon.png,9,8,NaN,NaN,0.15,0.15,1,0,0,1,Stable,Stable,3.975,0.576,1.256,1.807,inexpert
41,1671326316650,18/12/2022 01:18:36,1671326316593,0,18/12/2022 01:18:36,109680,37,task-qrxs,repeat-7g8d#1->-repeat-38fk#1->-repeat-qjz7#1->-repeat-5t6i#1,26007700,BLIND,7679970,NaN,complete,NaN,NaN,computer,Desktop or Laptop,Windows 10,Chrome 108.0.0.0,1280x720,1280x720,End of Day 1,SLS,90,A,Pass,End of Day 1,Pass,NaN,NaN,NaN,Pass,NaN,Pass,NaN,schedule_B,schedule_B,9,4,3,offer,Zone2,response_button_image,818.40000000596,NaN,NaN,blueBox.png,1,1,0,0,NaN,NaN,NaN,NaN,NaN,trial_right,blueBox.png,blueBox.png,greenBox.png,al2_uncon.png,9,8,NaN,NaN,0.15,0.15,1,0,0,1,Stable,Stable,3.975,0.576,1.256,1.807,inexpert
42,1671326318637,18/12/2022 01:18:38,1671326318584,0,18/12/2022 01:18:38,109680,37,task-qrxs,repeat-7g8d#1->-repeat-38fk#1->-repeat-qjz7#1->-repeat-5t6i#1,26007700,BLIND,7679970,NaN,complete,NaN,NaN,computer,Desktop or Laptop,Windows 10,Chrome 108.0.0.0,1280x720,1280x720,End of Day 1,SLS,90,A,Pass,End of Day 1,Pass,NaN,NaN,NaN,Pass,NaN,Pass,NaN,schedule_B,schedule_B,9,4,4,feedback_l,Zone7,timelimit_screen,1999.604,NaN,NaN,,NaN,0,1,0,NaN,NaN,1,NaN,NaN,trial_right,blueBox.png,blueBox.png,greenBox.png,al2_uncon.png,9,8,NaN,NaN,0.15,0.15,1,0,0,1,Stable,Stable,3.975,0.576,1.256,1.807,inexpert
43,1671326318793,18/12/2022 01:18:38,1671326318736,0,18/12/2022 01:18:38,109680,37,task-qrxs,repeat-7g8d#1->-repeat-38fk#1->-repeat-qjz7#1->-repeat-5t6i#1,26007700,BLIND,7679970,NaN,complete,NaN,NaN,computer,Desktop or Laptop,Windows 10,Chrome 108.0.0.0,1280x720,1280x720,End of Day 1,SLS,90,A,Pass,End of Day 1,Pass,NaN,NaN,NaN,Pass,NaN,Pass,NaN,schedule_B,schedule_B,9,4,6,end,Zone1,timelimit_screen,150.015999999996,NaN,NaN,,NaN,0,1,0,NaN,NaN,1,NaN,NaN,trial_right,blueBox.png,blueBox.png,greenBox.png,al2_uncon.png,9,8,NaN,NaN,0.15,0.15,1,0,0,1,Stable,Stable,3.975,0.576,1.256,1.807,inexpert
44,1671326319693,18/12/2022 01:18:39,1671326319646,0,18/12/2022 01:18:39,109680,37,task-qrxs,repeat-7g8d#1->-repeat-38fk#1->-repeat-qjz7#1->-repeat-5t6i#1,26007700,BLIND,7679970,NaN,complete,NaN,NaN,computer,Desktop or Laptop,Windows 10,Chrome 108.0.0.0,1280x720,1280x720,End of Day 1,SLS,90,A,Pass,End of Day 1,Pass,NaN,NaN,NaN,Pass,NaN,Pass,NaN,schedule_B,schedule_B,10,5,1,Screen 1,Zone1,continue_button,878.600000023842,NaN,NaN,,NaN,0,1,0,NaN,NaN,NaN,NaN,NaN,trial_left,greenBox.png,blueBox.png,greenBox.png,al2_uncon.png,10,9,NaN,NaN,0.15,0.15,0,0,1,1,Stable,Stable,3.798,1.055,1.559,2.042,inexpert
45,1671326320699,18/12/2022 01:18:40,1671326320644,0,18/12/2022 01:18:40,109680,37,task-qrxs,repeat-7g8d#1->-repeat-38fk#1->-repeat-qjz7#1->-repeat-5t6i#1,26007700,BLIND,7679970,NaN,complete,NaN,NaN,computer,Desktop or Laptop,Windows 10,Chrome 108.0.0.0,1280x720,1280x720,End of Day 1,SLS,90,A,Pass,End of Day 1,Pass,NaN,NaN,NaN,Pass,NaN,Pass,NaN,schedule_B,schedule_B,10,5,2,individual,Zone4,timelimit_screen,1000.06,NaN,NaN,,NaN,0,1,0,NaN,NaN,1,NaN,NaN,trial_left,greenBox.png,blueBox.png,greenBox.png,al2_uncon.png,10,9,NaN,NaN,0.15,0.15,0,0,1,1,Stable,Stable,3.798,1.055,1.559,2.042,inexpert
46,1671326321341,18/12/2022 01:18:41,1671326321295,0,18/12/2022 01:18:41,109680,37,task-qrxs,repeat-7g8d#1->-repeat-38fk#1->-repeat-qjz7#1->-repeat-5t6i#1,26007700,BLIND,7679970,NaN,complete,NaN,NaN,computer,Desktop or Laptop,Windows 10,Chrome 108.0.0.0,1280x720,1280x720,End of Day 1,SLS,90,A,Pass,End of Day 1,Pass,NaN,NaN,NaN,Pass,NaN,Pass,NaN,schedule_B,schedule_B,10,5,3,offer,bluebox,response_button_image,628,NaN,NaN,greenBox.png,1,1,0,0,NaN,NaN,NaN,NaN,NaN,trial_left,greenBox.png,blueBox.png,greenBox.png,al2_uncon.png,10,9,NaN,NaN,0.15,0.15,0,0,1,1,Stable,Stable,3.798,1.055,1.559,2.042,inexpert
47,1671326323339,18/12/2022 01:18:43,1671326323284,0,18/12/2022 01:18:43,109680,37,task-qrxs,repeat-7g8d#1->-repeat-38fk#1->-repeat-qjz7#1->-repeat-5t6i#1,26007700,BLIND,7679970,NaN,complete,NaN,NaN,computer,Desktop or Laptop,Windows 10,Chrome 108.0.0.0,1280x720,1280x720,End of Day 1,SLS,90,A,Pass,End of Day 1,Pass,NaN,NaN,NaN,Pass,NaN,Pass,NaN,schedule_B,schedule_B,10,5,5,feedback_r,Zone7,timelimit_screen,1999.336,NaN,NaN,,NaN,0,1,0,NaN,NaN,1,NaN,NaN,trial_left,greenBox.png,blueBox.png,greenBox.png,al2_uncon.png,10,9,NaN,NaN,0.15,0.15,0,0,1,1,Stable,Stable,3.798,1.055,1.559,2.042,inexpert
48,1671326323488,18/12/2022 01:18:43,1671326323427,0,18/12/2022 01:18:43,109680,37,task-qrxs,repeat-7g8d#1->-repeat-38fk#1->-repeat-qjz7#1->-repeat-5t6i#1,26007700,BLIND,7679970,NaN,complete,NaN,NaN,computer,Desktop or Laptop,Windows 10,Chrome 108.0.0.0,1280x720,1280x720,End of Day 1,SLS,90,A,Pass,End of Day 1,Pass,NaN,NaN,NaN,Pass,NaN,Pass,NaN,schedule_B,schedule_B,10,5,6,end,Zone1,timelimit_screen,150.652000000002,NaN,NaN,,NaN,0,1,0,NaN,NaN,1,NaN,NaN,trial_left,greenBox.png,blueBox.png,greenBox.png,al2_uncon.png,10,9,NaN,NaN,0.15,0.15,0,0,1,1,Stable,Stable,3.798,1.055,1.559,2.042,inexpert
49,1671326325054,18/12/2022 01:18:45,1671326325009,0,18/12/2022 01:18:45,109680,37,task-qrxs,repeat-7g8d#1->-repeat-38fk#1->-repeat-qjz7#1->-repeat-5t6i#1,26007700,BLIND,7679970,NaN,complete,NaN,NaN,computer,Desktop or Laptop,Windows 10,Chrome 108.0.0.0,1280x720,1280x720,End of Day 1,SLS,90,A,Pass,End of Day 1,Pass,NaN,NaN,NaN,Pass,NaN,Pass,NaN,schedule_B,schedule_B,11,5,1,Screen 1,Zone1,continue_button,1550.39999997616,NaN,NaN,,NaN,0,1,0,NaN,NaN,NaN,NaN,NaN,trial_right,greenBox.png,greenBox.png,blueBox.png,al2_uncon.png,21,10,NaN,NaN,0.15,0.15,0,0,1,0,Stable,Stable,1.857,0.5,1.294,2.916,inexpert
50,1671326326036,18/12/2022 01:18:46,1671326325993,0,18/12/2022 01:18:45,109680,37,task-qrxs,repeat-7g8d#1->-repeat-38fk#1->-repeat-qjz7#1->-repeat-5t6i#1,26007700,BLIND,7679970,NaN,complete,NaN,NaN,computer,Desktop or Laptop,Windows 10,Chrome 108.0.0.0,1280x720,1280x720,End of Day 1,SLS,90,A,Pass,End of Day 1,Pass,NaN,NaN,NaN,Pass,NaN,Pass,NaN,schedule_B,schedule_B,11,5,2,individual,Zone4,timelimit_screen,999.207999999999,NaN,NaN,,NaN,0,1,0,NaN,NaN,1,NaN,NaN,trial_right,greenBox.png,greenBox.png,blueBox.png,al2_uncon.png,21,10,NaN,NaN,0.15,0.15,0,0,1,0,Stable,Stable,1.857,0.5,1.294,2.916,inexpert
51,1671326326821,18/12/2022 01:18:46,1671326326774,0,18/12/2022 01:18:46,109680,37,task-qrxs,repeat-7g8d#1->-repeat-38fk#1->-repeat-qjz7#1->-repeat-5t6i#1,26007700,BLIND,7679970,NaN,complete,NaN,NaN,computer,Desktop or Laptop,Windows 10,Chrome 108.0.0.0,1280x720,1280x720,End of Day 1,SLS,90,A,Pass,End of Day 1,Pass,NaN,NaN,NaN,Pass,NaN,Pass,NaN,schedule_B,schedule_B,11,5,3,offer,Zone2,response_button_image,761.5,NaN,NaN,greenBox.png,1,1,0,0,NaN,NaN,NaN,NaN,NaN,trial_right,greenBox.png,greenBox.png,blueBox.png,al2_uncon.png,21,10,NaN,NaN,0.15,0.15,0,0,1,0,Stable,Stable,1.857,0.5,1.294,2.916,inexpert
52,1671326328824,18/12/2022 01:18:48,1671326328759,0,18/12/2022 01:18:48,109680,37,task-qrxs,repeat-7g8d#1->-repeat-38fk#1->-repeat-qjz7#1->-repeat-5t6i#1,26007700,BLIND,7679970,NaN,complete,NaN,NaN,computer,Desktop or Laptop,Windows 10,Chrome 108.0.0.0,1280x720,1280x720,End of Day 1,SLS,90,A,Pass,End of Day 1,Pass,NaN,NaN,NaN,Pass,NaN,Pass,NaN,schedule_B,schedule_B,11,5,4,feedback_l,Zone7,timelimit_screen,2000.374,NaN,NaN,,NaN,0,1,0,NaN,NaN,1,NaN,NaN,trial_right,greenBox.png,greenBox.png,blueBox.png,al2_uncon.png,21,10,NaN,NaN,0.15,0.15,0,0,1,0,Stable,Stable,1.857,0.5,1.294,2.916,inexpert
53,1671326328967,18/12/2022 01:18:48,1671326328909,0,18/12/2022 01:18:48,109680,37,task-qrxs,repeat-7g8d#1->-repeat-38fk#1->-repeat-qjz7#1->-repeat-5t6i#1,26007700,BLIND,7679970,NaN,complete,NaN,NaN,computer,Desktop or Laptop,Windows 10,Chrome 108.0.0.0,1280x720,1280x720,End of Day 1,SLS,90,A,Pass,End of Day 1,Pass,NaN,NaN,NaN,Pass,NaN,Pass,NaN,schedule_B,schedule_B,11,5,6,end,Zone1,timelimit_screen,150.010999999999,NaN,NaN,,NaN,0,1,0,NaN,NaN,1,NaN,NaN,trial_right,greenBox.png,greenBox.png,blueBox.png,al2_uncon.png,21,10,NaN,NaN,0.15,0.15,0,0,1,0,Stable,Stable,1.857,0.5,1.294,2.916,inexpert
54,1671326330320,18/12/2022 01:18:50,1671326330261,0,18/12/2022 01:18:50,109680,37,task-qrxs,repeat-7g8d#1->-repeat-38fk#1->-repeat-qjz7#1->-repeat-5t6i#1,26007700,BLIND,7679970,NaN,complete,NaN,NaN,computer,Desktop or Laptop,Windows 10,Chrome 108.0.0.0,1280x720,1280x720,End of Day 1,SLS,90,A,Pass,End of Day 1,Pass,NaN,NaN,NaN,Pass,NaN,Pass,NaN,schedule_B,schedule_B,12,6,1,Screen 1,Zone1,continue_button,1318.79999998212,NaN,NaN,,NaN,0,1,0,NaN,NaN,NaN,NaN,NaN,trial_left,blueBox.png,greenBox.png,blueBox.png,al2_uncon.png,22,11,NaN,NaN,0.85,0.15,1,0,0,0,Stable,Stable,1.126,1.849,1.483,1.689,inexpert
55,1671326331314,18/12/2022 01:18:51,1671326331259,0,18/12/2022 01:18:51,109680,37,task-qrxs,repeat-7g8d#1->-repeat-38fk#1->-repeat-qjz7#1->-repeat-5t6i#1,26007700,BLIND,7679970,NaN,complete,NaN,NaN,computer,Desktop or Laptop,Windows 10,Chrome 108.0.0.0,1280x720,1280x720,End of Day 1,SLS,90,A,Pass,End of Day 1,Pass,NaN,NaN,NaN,Pass,NaN,Pass,NaN,schedule_B,schedule_B,12,6,2,individual,Zone4,timelimit_screen,1000.49200000001,NaN,NaN,,NaN,0,1,0,NaN,NaN,1,NaN,NaN,trial_left,blueBox.png,greenBox.png,blueBox.png,al2_uncon.png,22,11,NaN,NaN,0.85,0.15,1,0,0,0,Stable,Stable,1.126,1.849,1.483,1.689,inexpert
56,1671326332216,18/12/2022 01:18:52,1671326332161,0,18/12/2022 01:18:52,109680,37,task-qrxs,repeat-7g8d#1->-repeat-38fk#1->-repeat-qjz7#1->-repeat-5t6i#1,26007700,BLIND,7679970,NaN,complete,NaN,NaN,computer,Desktop or Laptop,Windows 10,Chrome 108.0.0.0,1280x720,1280x720,End of Day 1,SLS,90,A,Pass,End of Day 1,Pass,NaN,NaN,NaN,Pass,NaN,Pass,NaN,schedule_B,schedule_B,12,6,3,offer,bluebox,response_button_image,884,NaN,NaN,blueBox.png,1,1,0,0,NaN,NaN,NaN,NaN,NaN,trial_left,blueBox.png,greenBox.png,blueBox.png,al2_uncon.png,22,11,NaN,NaN,0.85,0.15,1,0,0,0,Stable,Stable,1.126,1.849,1.483,1.689,inexpert
57,1671326334211,18/12/2022 01:18:54,1671326334158,0,18/12/2022 01:18:54,109680,37,task-qrxs,repeat-7g8d#1->-repeat-38fk#1->-repeat-qjz7#1->-repeat-5t6i#1,26007700,BLIND,7679970,NaN,complete,NaN,NaN,computer,Desktop or Laptop,Windows 10,Chrome 108.0.0.0,1280x720,1280x720,End of Day 1,SLS,90,A,Pass,End of Day 1,Pass,NaN,NaN,NaN,Pass,NaN,Pass,NaN,schedule_B,schedule_B,12,6,5,feedback_r,Zone7,timelimit_screen,1999.772,NaN,NaN,,NaN,0,1,0,NaN,NaN,1,NaN,NaN,trial_left,blueBox.png,greenBox.png,blueBox.png,al2_uncon.png,22,11,NaN,NaN,0.85,0.15,1,0,0,0,Stable,Stable,1.126,1.849,1.483,1.689,inexpert
58,1671326334353,18/12/2022 01:18:54,1671326334307,0,18/12/2022 01:18:54,109680,37,task-qrxs,repeat-7g8d#1->-repeat-38fk#1->-repeat-qjz7#1->-repeat-5t6i#1,26007700,BLIND,7679970,NaN,complete,NaN,NaN,computer,Desktop or Laptop,Windows 10,Chrome 108.0.0.0,1280x720,1280x720,End of Day 1,SLS,90,A,Pass,End of Day 1,Pass,NaN,NaN,NaN,Pass,NaN,Pass,NaN,schedule_B,schedule_B,12,6,6,end,Zone1,timelimit_screen,149.258000000002,NaN,NaN,,NaN,0,1,0,NaN,NaN,1,NaN,NaN,trial_left,blueBox.png,greenBox.png,blueBox.png,al2_uncon.png,22,11,NaN,NaN,0.85,0.15,1,0,0,0,Stable,Stable,1.126,1.849,1.483,1.689,inexpert
59,1671326335557,18/12/2022 01:18:55,1671326335493,0,18/12/2022 01:18:55,109680,37,task-qrxs,repeat-7g8d#1->-repeat-38fk#1->-repeat-qjz7#1->-repeat-5t6i#1,26007700,BLIND,7679970,NaN,complete,NaN,NaN,computer,Desktop or Laptop,Windows 10,Chrome 108.0.0.0,1280x720,1280x720,End of Day 1,SLS,90,A,Pass,End of Day 1,Pass,NaN,NaN,NaN,Pass,NaN,Pass,NaN,schedule_B,schedule_B,13,7,1,Screen 1,Zone1,continue_button,1152.20000001788,NaN,NaN,,NaN,0,1,0,NaN,NaN,NaN,NaN,NaN,trial_left,blueBox.png,greenBox.png,blueBox.png,al2_uncon.png,23,12,NaN,NaN,0.85,0.15,1,0,0,0,Stable,Stable,2.361,0.992,0.5,1.975,inexpert
60,1671326336550,18/12/2022 01:18:56,1671326336492,0,18/12/2022 01:18:56,109680,37,task-qrxs,repeat-7g8d#1->-repeat-38fk#1->-repeat-qjz7#1->-repeat-5t6i#1,26007700,BLIND,7679970,NaN,complete,NaN,NaN,computer,Desktop or Laptop,Windows 10,Chrome 108.0.0.0,1280x720,1280x720,End of Day 1,SLS,90,A,Pass,End of Day 1,Pass,NaN,NaN,NaN,Pass,NaN,Pass,NaN,schedule_B,schedule_B,13,7,2,individual,Zone4,timelimit_screen,1000.529,NaN,NaN,,NaN,0,1,0,NaN,NaN,1,NaN,NaN,trial_left,blueBox.png,greenBox.png,blueBox.png,al2_uncon.png,23,12,NaN,NaN,0.85,0.15,1,0,0,0,Stable,Stable,2.361,0.992,0.5,1.975,inexpert
61,1671326337466,18/12/2022 01:18:57,1671326337410,0,18/12/2022 01:18:57,109680,37,task-qrxs,repeat-7g8d#1->-repeat-38fk#1->-repeat-qjz7#1->-repeat-5t6i#1,26007700,BLIND,7679970,NaN,complete,NaN,NaN,computer,Desktop or Laptop,Windows 10,Chrome 108.0.0.0,1280x720,1280x720,End of Day 1,SLS,90,A,Pass,End of Day 1,Pass,NaN,NaN,NaN,Pass,NaN,Pass,NaN,schedule_B,schedule_B,13,7,3,offer,bluebox,response_button_image,900.199999988079,NaN,NaN,blueBox.png,1,1,0,0,NaN,NaN,NaN,NaN,NaN,trial_left,blueBox.png,greenBox.png,blueBox.png,al2_uncon.png,23,12,NaN,NaN,0.85,0.15,1,0,0,0,Stable,Stable,2.361,0.992,0.5,1.975,inexpert
62,1671326339462,18/12/2022 01:18:59,1671326339407,0,18/12/2022 01:18:59,109680,37,task-qrxs,repeat-7g8d#1->-repeat-38fk#1->-repeat-qjz7#1->-repeat-5t6i#1,26007700,BLIND,7679970,NaN,complete,NaN,NaN,computer,Desktop or Laptop,Windows 10,Chrome 108.0.0.0,1280x720,1280x720,End of Day 1,SLS,90,A,Pass,End of Day 1,Pass,NaN,NaN,NaN,Pass,NaN,Pass,NaN,schedule_B,schedule_B,13,7,5,feedback_r,Zone7,timelimit_screen,1999.535,NaN,NaN,,NaN,0,1,0,NaN,NaN,1,NaN,NaN,trial_left,blueBox.png,greenBox.png,blueBox.png,al2_uncon.png,23,12,NaN,NaN,0.85,0.15,1,0,0,0,Stable,Stable,2.361,0.992,0.5,1.975,inexpert
63,1671326339614,18/12/2022 01:18:59,1671326339564,0,18/12/2022 01:18:59,109680,37,task-qrxs,repeat-7g8d#1->-repeat-38fk#1->-repeat-qjz7#1->-repeat-5t6i#1,26007700,BLIND,7679970,NaN,complete,NaN,NaN,computer,Desktop or Laptop,Windows 10,Chrome 108.0.0.0,1280x720,1280x720,End of Day 1,SLS,90,A,Pass,End of Day 1,Pass,NaN,NaN,NaN,Pass,NaN,Pass,NaN,schedule_B,schedule_B,13,7,6,end,Zone1,timelimit_screen,149.516000000003,NaN,NaN,,NaN,0,1,0,NaN,NaN,1,NaN,NaN,trial_left,blueBox.png,greenBox.png,blueBox.png,al2_uncon.png,23,12,NaN,NaN,0.85,0.15,1,0,0,0,Stable,Stable,2.361,0.992,0.5,1.975,inexpert
64,1671326340431,18/12/2022 01:19:00,1671326340367,0,18/12/2022 01:19:00,109680,37,task-qrxs,repeat-7g8d#1->-repeat-38fk#1->-repeat-qjz7#1->-repeat-5t6i#1,26007700,BLIND,7679970,NaN,complete,NaN,NaN,computer,Desktop or Laptop,Windows 10,Chrome 108.0.0.0,1280x720,1280x720,End of Day 1,SLS,90,A,Pass,End of Day 1,Pass,NaN,NaN,NaN,Pass,NaN,Pass,NaN,schedule_B,schedule_B,14,6,1,Screen 1,Zone1,continue_button,769.800000011921,NaN,NaN,,NaN,0,1,0,NaN,NaN,NaN,NaN,NaN,trial_right,blueBox.png,blueBox.png,greenBox.png,al2_uncon.png,24,13,NaN,NaN,0.85,0.15,1,0,0,1,Stable,Stable,1.05,1.95,1.319,1.487,inexpert
65,1671326341399,18/12/2022 01:19:01,1671326341358,0,18/12/2022 01:19:01,109680,37,task-qrxs,repeat-7g8d#1->-repeat-38fk#1->-repeat-qjz7#1->-repeat-5t6i#1,26007700,BLIND,7679970,NaN,complete,NaN,NaN,computer,Desktop or Laptop,Windows 10,Chrome 108.0.0.0,1280x720,1280x720,End of Day 1,SLS,90,A,Pass,End of Day 1,Pass,NaN,NaN,NaN,Pass,NaN,Pass,NaN,schedule_B,schedule_B,14,6,2,individual,Zone4,timelimit_screen,1000.53700000001,NaN,NaN,,NaN,0,1,0,NaN,NaN,1,NaN,NaN,trial_right,blueBox.png,blueBox.png,greenBox.png,al2_uncon.png,24,13,NaN,NaN,0.85,0.15,1,0,0,1,Stable,Stable,1.05,1.95,1.319,1.487,inexpert
66,1671326342262,18/12/2022 01:19:02,1671326342204,0,18/12/2022 01:19:02,109680,37,task-qrxs,repeat-7g8d#1->-repeat-38fk#1->-repeat-qjz7#1->-repeat-5t6i#1,26007700,BLIND,7679970,NaN,complete,NaN,NaN,computer,Desktop or Laptop,Windows 10,Chrome 108.0.0.0,1280x720,1280x720,End of Day 1,SLS,90,A,Pass,End of Day 1,Pass,NaN,NaN,NaN,Pass,NaN,Pass,NaN,schedule_B,schedule_B,14,6,3,offer,Zone2,response_button_image,825.5,NaN,NaN,blueBox.png,1,1,0,0,NaN,NaN,NaN,NaN,NaN,trial_right,blueBox.png,blueBox.png,greenBox.png,al2_uncon.png,24,13,NaN,NaN,0.85,0.15,1,0,0,1,Stable,Stable,1.05,1.95,1.319,1.487,inexpert
67,1671326344250,18/12/2022 01:19:04,1671326344190,0,18/12/2022 01:19:04,109680,37,task-qrxs,repeat-7g8d#1->-repeat-38fk#1->-repeat-qjz7#1->-repeat-5t6i#1,26007700,BLIND,7679970,NaN,complete,NaN,NaN,computer,Desktop or Laptop,Windows 10,Chrome 108.0.0.0,1280x720,1280x720,End of Day 1,SLS,90,A,Pass,End of Day 1,Pass,NaN,NaN,NaN,Pass,NaN,Pass,NaN,schedule_B,schedule_B,14,6,4,feedback_l,Zone7,timelimit_screen,1999.709,NaN,NaN,,NaN,0,1,0,NaN,NaN,1,NaN,NaN,trial_right,blueBox.png,blueBox.png,greenBox.png,al2_uncon.png,24,13,NaN,NaN,0.85,0.15,1,0,0,1,Stable,Stable,1.05,1.95,1.319,1.487,inexpert
68,1671326344392,18/12/2022 01:19:04,1671326344347,0,18/12/2022 01:19:04,109680,37,task-qrxs,repeat-7g8d#1->-repeat-38fk#1->-repeat-qjz7#1->-repeat-5t6i#1,26007700,BLIND,7679970,NaN,complete,NaN,NaN,computer,Desktop or Laptop,Windows 10,Chrome 108.0.0.0,1280x720,1280x720,End of Day 1,SLS,90,A,Pass,End of Day 1,Pass,NaN,NaN,NaN,Pass,NaN,Pass,NaN,schedule_B,schedule_B,14,6,6,end,Zone1,timelimit_screen,150.013000000006,NaN,NaN,,NaN,0,1,0,NaN,NaN,1,NaN,NaN,trial_right,blueBox.png,blueBox.png,greenBox.png,al2_uncon.png,24,13,NaN,NaN,0.85,0.15,1,0,0,1,Stable,Stable,1.05,1.95,1.319,1.487,inexpert
69,1671326345134,18/12/2022 01:19:05,1671326345093,0,18/12/2022 01:19:05,109680,37,task-qrxs,repeat-7g8d#1->-repeat-38fk#1->-repeat-qjz7#1->-repeat-5t6i#1,26007700,BLIND,7679970,NaN,complete,NaN,NaN,computer,Desktop or Laptop,Windows 10,Chrome 108.0.0.0,1280x720,1280x720,End of Day 1,SLS,90,A,Pass,End of Day 1,Pass,NaN,NaN,NaN,Pass,NaN,Pass,NaN,schedule_B,schedule_B,15,7,1,Screen 1,Zone1,continue_button,710.100000023842,NaN,NaN,,NaN,0,1,0,NaN,NaN,NaN,NaN,NaN,trial_right,blueBox.png,blueBox.png,greenBox.png,al2_uncon.png,25,14,NaN,NaN,0.85,0.15,1,0,0,1,Stable,Stable,3.395,0.84,0.803,1.252,inexpert
70,1671326346137,18/12/2022 01:19:06,1671326346091,0,18/12/2022 01:19:06,109680,37,task-qrxs,repeat-7g8d#1->-repeat-38fk#1->-repeat-qjz7#1->-repeat-5t6i#1,26007700,BLIND,7679970,NaN,complete,NaN,NaN,computer,Desktop or Laptop,Windows 10,Chrome 108.0.0.0,1280x720,1280x720,End of Day 1,SLS,90,A,Pass,End of Day 1,Pass,NaN,NaN,NaN,Pass,NaN,Pass,NaN,schedule_B,schedule_B,15,7,2,individual,Zone4,timelimit_screen,999.856999999989,NaN,NaN,,NaN,0,1,0,NaN,NaN,1,NaN,NaN,trial_right,blueBox.png,blueBox.png,greenBox.png,al2_uncon.png,25,14,NaN,NaN,0.85,0.15,1,0,0,1,Stable,Stable,3.395,0.84,0.803,1.252,inexpert
71,1671326346884,18/12/2022 01:19:06,1671326346829,0,18/12/2022 01:19:06,109680,37,task-qrxs,repeat-7g8d#1->-repeat-38fk#1->-repeat-qjz7#1->-repeat-5t6i#1,26007700,BLIND,7679970,NaN,complete,NaN,NaN,computer,Desktop or Laptop,Windows 10,Chrome 108.0.0.0,1280x720,1280x720,End of Day 1,SLS,90,A,Pass,End of Day 1,Pass,NaN,NaN,NaN,Pass,NaN,Pass,NaN,schedule_B,schedule_B,15,7,3,offer,Zone2,response_button_image,719.800000011921,NaN,NaN,blueBox.png,1,1,0,0,NaN,NaN,NaN,NaN,NaN,trial_right,blueBox.png,blueBox.png,greenBox.png,al2_uncon.png,25,14,NaN,NaN,0.85,0.15,1,0,0,1,Stable,Stable,3.395,0.84,0.803,1.252,inexpert
72,1671326348858,18/12/2022 01:19:08,1671326348806,0,18/12/2022 01:19:08,109680,37,task-qrxs,repeat-7g8d#1->-repeat-38fk#1->-repeat-qjz7#1->-repeat-5t6i#1,26007700,BLIND,7679970,NaN,complete,NaN,NaN,computer,Desktop or Laptop,Windows 10,Chrome 108.0.0.0,1280x720,1280x720,End of Day 1,SLS,90,A,Pass,End of Day 1,Pass,NaN,NaN,NaN,Pass,NaN,Pass,NaN,schedule_B,schedule_B,15,7,4,feedback_l,Zone7,timelimit_screen,1998.88900000001,NaN,NaN,,NaN,0,1,0,NaN,NaN,1,NaN,NaN,trial_right,blueBox.png,blueBox.png,greenBox.png,al2_uncon.png,25,14,NaN,NaN,0.85,0.15,1,0,0,1,Stable,Stable,3.395,0.84,0.803,1.252,inexpert
73,1671326349000,18/12/2022 01:19:09,1671326348956,0,18/12/2022 01:19:08,109680,37,task-qrxs,repeat-7g8d#1->-repeat-38fk#1->-repeat-qjz7#1->-repeat-5t6i#1,26007700,BLIND,7679970,NaN,complete,NaN,NaN,computer,Desktop or Laptop,Windows 10,Chrome 108.0.0.0,1280x720,1280x720,End of Day 1,SLS,90,A,Pass,End of Day 1,Pass,NaN,NaN,NaN,Pass,NaN,Pass,NaN,schedule_B,schedule_B,15,7,6,end,Zone1,timelimit_screen,150.069999999992,NaN,NaN,,NaN,0,1,0,NaN,NaN,1,NaN,NaN,trial_right,blueBox.png,blueBox.png,greenBox.png,al2_uncon.png,25,14,NaN,NaN,0.85,0.15,1,0,0,1,Stable,Stable,3.395,0.84,0.803,1.252,inexpert
74,1671326349846,18/12/2022 01:19:09,1671326349790,0,18/12/2022 01:19:09,109680,37,task-qrxs,repeat-7g8d#1->-repeat-38fk#1->-repeat-qjz7#1->-repeat-5t6i#1,26007700,BLIND,7679970,NaN,complete,NaN,NaN,computer,Desktop or Laptop,Windows 10,Chrome 108.0.0.0,1280x720,1280x720,End of Day 1,SLS,90,A,Pass,End of Day 1,Pass,NaN,NaN,NaN,Pass,NaN,Pass,NaN,schedule_B,schedule_B,16,8,1,Screen 1,Zone1,continue_button,802.40000000596,NaN,NaN,,NaN,0,1,0,NaN,NaN,NaN,NaN,NaN,trial_left,blueBox.png,blueBox.png,greenBox.png,al2_uncon.png,26,15,NaN,NaN,0.85,0.15,1,1,1,1,Stable,Stable,2.689,1.067,1.697,2.731,inexpert
75,1671326350843,18/12/2022 01:19:10,1671326350795,0,18/12/2022 01:19:10,109680,37,task-qrxs,repeat-7g8d#1->-repeat-38fk#1->-repeat-qjz7#1->-repeat-5t6i#1,26007700,BLIND,7679970,NaN,complete,NaN,NaN,computer,Desktop or Laptop,Windows 10,Chrome 108.0.0.0,1280x720,1280x720,End of Day 1,SLS,90,A,Pass,End of Day 1,Pass,NaN,NaN,NaN,Pass,NaN,Pass,NaN,schedule_B,schedule_B,16,8,2,individual,Zone4,timelimit_screen,999.842000000004,NaN,NaN,,NaN,0,1,0,NaN,NaN,1,NaN,NaN,trial_left,blueBox.png,blueBox.png,greenBox.png,al2_uncon.png,26,15,NaN,NaN,0.85,0.15,1,1,1,1,Stable,Stable,2.689,1.067,1.697,2.731,inexpert
76,1671326351711,18/12/2022 01:19:11,1671326351665,0,18/12/2022 01:19:11,109680,37,task-qrxs,repeat-7g8d#1->-repeat-38fk#1->-repeat-qjz7#1->-repeat-5t6i#1,26007700,BLIND,7679970,NaN,complete,NaN,NaN,computer,Desktop or Laptop,Windows 10,Chrome 108.0.0.0,1280x720,1280x720,End of Day 1,SLS,90,A,Pass,End of Day 1,Pass,NaN,NaN,NaN,Pass,NaN,Pass,NaN,schedule_B,schedule_B,16,8,3,offer,bluebox,response_button_image,851.200000017881,NaN,NaN,greenBox.png,1,0,1,0,NaN,NaN,NaN,NaN,NaN,trial_left,blueBox.png,blueBox.png,greenBox.png,al2_uncon.png,26,15,NaN,NaN,0.85,0.15,1,1,1,1,Stable,Stable,2.689,1.067,1.697,2.731,inexpert
77,1671326353706,18/12/2022 01:19:13,1671326353655,0,18/12/2022 01:19:13,109680,37,task-qrxs,repeat-7g8d#1->-repeat-38fk#1->-repeat-qjz7#1->-repeat-5t6i#1,26007700,BLIND,7679970,NaN,complete,NaN,NaN,computer,Desktop or Laptop,Windows 10,Chrome 108.0.0.0,1280x720,1280x720,End of Day 1,SLS,90,A,Pass,End of Day 1,Pass,NaN,NaN,NaN,Pass,NaN,Pass,NaN,schedule_B,schedule_B,16,8,5,feedback_r,Zone7,timelimit_screen,2000.249,NaN,NaN,,NaN,0,1,0,NaN,NaN,1,NaN,NaN,trial_left,blueBox.png,blueBox.png,greenBox.png,al2_uncon.png,26,15,NaN,NaN,0.85,0.15,1,1,1,1,Stable,Stable,2.689,1.067,1.697,2.731,inexpert
78,1671326353847,18/12/2022 01:19:13,1671326353805,0,18/12/2022 01:19:13,109680,37,task-qrxs,repeat-7g8d#1->-repeat-38fk#1->-repeat-qjz7#1->-repeat-5t6i#1,26007700,BLIND,7679970,NaN,complete,NaN,NaN,computer,Desktop or Laptop,Windows 10,Chrome 108.0.0.0,1280x720,1280x720,End of Day 1,SLS,90,A,Pass,End of Day 1,Pass,NaN,NaN,NaN,Pass,NaN,Pass,NaN,schedule_B,schedule_B,16,8,6,end,Zone1,timelimit_screen,150.198999999993,NaN,NaN,,NaN,0,1,0,NaN,NaN,1,NaN,NaN,trial_left,blueBox.png,blueBox.png,greenBox.png,al2_uncon.png,26,15,NaN,NaN,0.85,0.15,1,1,1,1,Stable,Stable,2.689,1.067,1.697,2.731,inexpert
79,1671326354955,18/12/2022 01:19:14,1671326354908,0,18/12/2022 01:19:14,109680,37,task-qrxs,repeat-7g8d#1->-repeat-38fk#1->-repeat-qjz7#1->-repeat-5t6i#1,26007700,BLIND,7679970,NaN,complete,NaN,NaN,computer,Desktop or Laptop,Windows 10,Chrome 108.0.0.0,1280x720,1280x720,End of Day 1,SLS,90,A,Pass,End of Day 1,Pass,NaN,NaN,NaN,Pass,NaN,Pass,NaN,schedule_B,schedule_B,17,9,1,Screen 1,Zone1,continue_button,1070.30000001192,NaN,NaN,,NaN,0,1,0,NaN,NaN,NaN,NaN,NaN,trial_left,greenBox.png,greenBox.png,blueBox.png,al2_uncon.png,27,16,NaN,NaN,0.15,0.15,0,1,0,0,Stable,Stable,1.378,0.689,0.878,2.076,inexpert
80,1671326355948,18/12/2022 01:19:15,1671326355905,0,18/12/2022 01:19:15,109680,37,task-qrxs,repeat-7g8d#1->-repeat-38fk#1->-repeat-qjz7#1->-repeat-5t6i#1,26007700,BLIND,7679970,NaN,complete,NaN,NaN,computer,Desktop or Laptop,Windows 10,Chrome 108.0.0.0,1280x720,1280x720,End of Day 1,SLS,90,A,Pass,End of Day 1,Pass,NaN,NaN,NaN,Pass,NaN,Pass,NaN,schedule_B,schedule_B,17,9,2,individual,Zone4,timelimit_screen,999.95199999999,NaN,NaN,,NaN,0,1,0,NaN,NaN,1,NaN,NaN,trial_left,greenBox.png,greenBox.png,blueBox.png,al2_uncon.png,27,16,NaN,NaN,0.15,0.15,0,1,0,0,Stable,Stable,1.378,0.689,0.878,2.076,inexpert
81,1671326356717,18/12/2022 01:19:16,1671326356670,0,18/12/2022 01:19:16,109680,37,task-qrxs,repeat-7g8d#1->-repeat-38fk#1->-repeat-qjz7#1->-repeat-5t6i#1,26007700,BLIND,7679970,NaN,complete,NaN,NaN,computer,Desktop or Laptop,Windows 10,Chrome 108.0.0.0,1280x720,1280x720,End of Day 1,SLS,90,A,Pass,End of Day 1,Pass,NaN,NaN,NaN,Pass,NaN,Pass,NaN,schedule_B,schedule_B,17,9,3,offer,Zone2,response_button_image,746.59999999404,NaN,NaN,greenBox.png,1,1,0,0,NaN,NaN,NaN,NaN,NaN,trial_left,greenBox.png,greenBox.png,blueBox.png,al2_uncon.png,27,16,NaN,NaN,0.15,0.15,0,1,0,0,Stable,Stable,1.378,0.689,0.878,2.076,inexpert
82,1671326358705,18/12/2022 01:19:18,1671326358654,0,18/12/2022 01:19:18,109680,37,task-qrxs,repeat-7g8d#1->-repeat-38fk#1->-repeat-qjz7#1->-repeat-5t6i#1,26007700,BLIND,7679970,NaN,complete,NaN,NaN,computer,Desktop or Laptop,Windows 10,Chrome 108.0.0.0,1280x720,1280x720,End of Day 1,SLS,90,A,Pass,End of Day 1,Pass,NaN,NaN,NaN,Pass,NaN,Pass,NaN,schedule_B,schedule_B,17,9,4,feedback_l,Zone7,timelimit_screen,1999.003,NaN,NaN,,NaN,0,1,0,NaN,NaN,1,NaN,NaN,trial_left,greenBox.png,greenBox.png,blueBox.png,al2_uncon.png,27,16,NaN,NaN,0.15,0.15,0,1,0,0,Stable,Stable,1.378,0.689,0.878,2.076,inexpert
83,1671326358853,18/12/2022 01:19:18,1671326358804,0,18/12/2022 01:19:18,109680,37,task-qrxs,repeat-7g8d#1->-repeat-38fk#1->-repeat-qjz7#1->-repeat-5t6i#1,26007700,BLIND,7679970,NaN,complete,NaN,NaN,computer,Desktop or Laptop,Windows 10,Chrome 108.0.0.0,1280x720,1280x720,End of Day 1,SLS,90,A,Pass,End of Day 1,Pass,NaN,NaN,NaN,Pass,NaN,Pass,NaN,schedule_B,schedule_B,17,9,6,end,Zone1,timelimit_screen,150.472999999998,NaN,NaN,,NaN,0,1,0,NaN,NaN,1,NaN,NaN,trial_left,greenBox.png,greenBox.png,blueBox.png,al2_uncon.png,27,16,NaN,NaN,0.15,0.15,0,1,0,0,Stable,Stable,1.378,0.689,0.878,2.076,inexpert
84,1671326359672,18/12/2022 01:19:19,1671326359627,0,18/12/2022 01:19:19,109680,37,task-qrxs,repeat-7g8d#1->-repeat-38fk#1->-repeat-qjz7#1->-repeat-5t6i#1,26007700,BLIND,7679970,NaN,complete,NaN,NaN,computer,Desktop or Laptop,Windows 10,Chrome 108.0.0.0,1280x720,1280x720,End of Day 1,SLS,90,A,Pass,End of Day 1,Pass,NaN,NaN,NaN,Pass,NaN,Pass,NaN,schedule_B,schedule_B,18,8,1,Screen 1,Zone1,continue_button,794.399999976158,NaN,NaN,,NaN,0,1,0,NaN,NaN,NaN,NaN,NaN,trial_right,greenBox.png,blueBox.png,greenBox.png,al2_uncon.png,28,17,NaN,NaN,0.15,0.15,0,1,0,1,Stable,Stable,2.714,0.739,1.975,1.134,inexpert
85,1671326360674,18/12/2022 01:19:20,1671326360622,0,18/12/2022 01:19:20,109680,37,task-qrxs,repeat-7g8d#1->-repeat-38fk#1->-repeat-qjz7#1->-repeat-5t6i#1,26007700,BLIND,7679970,NaN,complete,NaN,NaN,computer,Desktop or Laptop,Windows 10,Chrome 108.0.0.0,1280x720,1280x720,End of Day 1,SLS,90,A,Pass,End of Day 1,Pass,NaN,NaN,NaN,Pass,NaN,Pass,NaN,schedule_B,schedule_B,18,8,2,individual,Zone4,timelimit_screen,1000.36,NaN,NaN,,NaN,0,1,0,NaN,NaN,1,NaN,NaN,trial_right,greenBox.png,blueBox.png,greenBox.png,al2_uncon.png,28,17,NaN,NaN,0.15,0.15,0,1,0,1,Stable,Stable,2.714,0.739,1.975,1.134,inexpert
86,1671326361278,18/12/2022 01:19:21,1671326361235,0,18/12/2022 01:19:21,109680,37,task-qrxs,repeat-7g8d#1->-repeat-38fk#1->-repeat-qjz7#1->-repeat-5t6i#1,26007700,BLIND,7679970,NaN,complete,NaN,NaN,computer,Desktop or Laptop,Windows 10,Chrome 108.0.0.0,1280x720,1280x720,End of Day 1,SLS,90,A,Pass,End of Day 1,Pass,NaN,NaN,NaN,Pass,NaN,Pass,NaN,schedule_B,schedule_B,18,8,3,offer,Zone3,response_button_image,594.09999999404,NaN,NaN,greenBox.png,1,1,0,0,NaN,NaN,NaN,NaN,NaN,trial_right,greenBox.png,blueBox.png,greenBox.png,al2_uncon.png,28,17,NaN,NaN,0.15,0.15,0,1,0,1,Stable,Stable,2.714,0.739,1.975,1.134,inexpert
87,1671326363270,18/12/2022 01:19:23,1671326363220,0,18/12/2022 01:19:23,109680,37,task-qrxs,repeat-7g8d#1->-repeat-38fk#1->-repeat-qjz7#1->-repeat-5t6i#1,26007700,BLIND,7679970,NaN,complete,NaN,NaN,computer,Desktop or Laptop,Windows 10,Chrome 108.0.0.0,1280x720,1280x720,End of Day 1,SLS,90,A,Pass,End of Day 1,Pass,NaN,NaN,NaN,Pass,NaN,Pass,NaN,schedule_B,schedule_B,18,8,5,feedback_r,Zone7,timelimit_screen,1999.746,NaN,NaN,,NaN,0,1,0,NaN,NaN,1,NaN,NaN,trial_right,greenBox.png,blueBox.png,greenBox.png,al2_uncon.png,28,17,NaN,NaN,0.15,0.15,0,1,0,1,Stable,Stable,2.714,0.739,1.975,1.134,inexpert
88,1671326363419,18/12/2022 01:19:23,1671326363372,0,18/12/2022 01:19:23,109680,37,task-qrxs,repeat-7g8d#1->-repeat-38fk#1->-repeat-qjz7#1->-repeat-5t6i#1,26007700,BLIND,7679970,NaN,complete,NaN,NaN,computer,Desktop or Laptop,Windows 10,Chrome 108.0.0.0,1280x720,1280x720,End of Day 1,SLS,90,A,Pass,End of Day 1,Pass,NaN,NaN,NaN,Pass,NaN,Pass,NaN,schedule_B,schedule_B,18,8,6,end,Zone1,timelimit_screen,150.000999999989,NaN,NaN,,NaN,0,1,0,NaN,NaN,1,NaN,NaN,trial_right,greenBox.png,blueBox.png,greenBox.png,al2_uncon.png,28,17,NaN,NaN,0.15,0.15,0,1,0,1,Stable,Stable,2.714,0.739,1.975,1.134,inexpert
89,1671326364233,18/12/2022 01:19:24,1671326364175,0,18/12/2022 01:19:24,109680,37,task-qrxs,repeat-7g8d#1->-repeat-38fk#1->-repeat-qjz7#1->-repeat-5t6i#1,26007700,BLIND,7679970,NaN,complete,NaN,NaN,computer,Desktop or Laptop,Windows 10,Chrome 108.0.0.0,1280x720,1280x720,End of Day 1,SLS,90,A,Pass,End of Day 1,Pass,NaN,NaN,NaN,Pass,NaN,Pass,NaN,schedule_B,schedule_B,19,9,1,Screen 1,Zone1,continue_button,769.800000011921,NaN,NaN,,NaN,0,1,0,NaN,NaN,NaN,NaN,NaN,trial_right,greenBox.png,greenBox.png,blueBox.png,al2_uncon.png,29,18,NaN,NaN,0.15,0.15,0,0,1,0,Stable,Stable,3.874,0.676,1.496,1.639,inexpert
90,1671326365218,18/12/2022 01:19:25,1671326365171,0,18/12/2022 01:19:25,109680,37,task-qrxs,repeat-7g8d#1->-repeat-38fk#1->-repeat-qjz7#1->-repeat-5t6i#1,26007700,BLIND,7679970,NaN,complete,NaN,NaN,computer,Desktop or Laptop,Windows 10,Chrome 108.0.0.0,1280x720,1280x720,End of Day 1,SLS,90,A,Pass,End of Day 1,Pass,NaN,NaN,NaN,Pass,NaN,Pass,NaN,schedule_B,schedule_B,19,9,2,individual,Zone4,timelimit_screen,999.856,NaN,NaN,,NaN,0,1,0,NaN,NaN,1,NaN,NaN,trial_right,greenBox.png,greenBox.png,blueBox.png,al2_uncon.png,29,18,NaN,NaN,0.15,0.15,0,0,1,0,Stable,Stable,3.874,0.676,1.496,1.639,inexpert
91,1671326366098,18/12/2022 01:19:26,1671326366039,0,18/12/2022 01:19:26,109680,37,task-qrxs,repeat-7g8d#1->-repeat-38fk#1->-repeat-qjz7#1->-repeat-5t6i#1,26007700,BLIND,7679970,NaN,complete,NaN,NaN,computer,Desktop or Laptop,Windows 10,Chrome 108.0.0.0,1280x720,1280x720,End of Day 1,SLS,90,A,Pass,End of Day 1,Pass,NaN,NaN,NaN,Pass,NaN,Pass,NaN,schedule_B,schedule_B,19,9,3,offer,Zone3,response_button_image,850.300000011921,NaN,NaN,blueBox.png,1,0,1,0,NaN,NaN,NaN,NaN,NaN,trial_right,greenBox.png,greenBox.png,blueBox.png,al2_uncon.png,29,18,NaN,NaN,0.15,0.15,0,0,1,0,Stable,Stable,3.874,0.676,1.496,1.639,inexpert
92,1671326368093,18/12/2022 01:19:28,1671326368042,0,18/12/2022 01:19:28,109680,37,task-qrxs,repeat-7g8d#1->-repeat-38fk#1->-repeat-qjz7#1->-repeat-5t6i#1,26007700,BLIND,7679970,NaN,complete,NaN,NaN,computer,Desktop or Laptop,Windows 10,Chrome 108.0.0.0,1280x720,1280x720,End of Day 1,SLS,90,A,Pass,End of Day 1,Pass,NaN,NaN,NaN,Pass,NaN,Pass,NaN,schedule_B,schedule_B,19,9,5,feedback_r,Zone7,timelimit_screen,1999.232,NaN,NaN,,NaN,0,1,0,NaN,NaN,1,NaN,NaN,trial_right,greenBox.png,greenBox.png,blueBox.png,al2_uncon.png,29,18,NaN,NaN,0.15,0.15,0,0,1,0,Stable,Stable,3.874,0.676,1.496,1.639,inexpert
93,1671326368233,18/12/2022 01:19:28,1671326368188,0,18/12/2022 01:19:28,109680,37,task-qrxs,repeat-7g8d#1->-repeat-38fk#1->-repeat-qjz7#1->-repeat-5t6i#1,26007700,BLIND,7679970,NaN,complete,NaN,NaN,computer,Desktop or Laptop,Windows 10,Chrome 108.0.0.0,1280x720,1280x720,End of Day 1,SLS,90,A,Pass,End of Day 1,Pass,NaN,NaN,NaN,Pass,NaN,Pass,NaN,schedule_B,schedule_B,19,9,6,end,Zone1,timelimit_screen,149.981,NaN,NaN,,NaN,0,1,0,NaN,NaN,1,NaN,NaN,trial_right,greenBox.png,greenBox.png,blueBox.png,al2_uncon.png,29,18,NaN,NaN,0.15,0.15,0,0,1,0,Stable,Stable,3.874,0.676,1.496,1.639,inexpert
94,1671326368987,18/12/2022 01:19:28,1671326368944,0,18/12/2022 01:19:28,109680,37,task-qrxs,repeat-7g8d#1->-repeat-38fk#1->-repeat-qjz7#1->-repeat-5t6i#1,26007700,BLIND,7679970,NaN,complete,NaN,NaN,computer,Desktop or Laptop,Windows 10,Chrome 108.0.0.0,1280x720,1280x720,End of Day 1,SLS,90,A,Pass,End of Day 1,Pass,NaN,NaN,NaN,Pass,NaN,Pass,NaN,schedule_B,schedule_B,20,10,1,Screen 1,Zone1,continue_button,721.800000011921,NaN,NaN,,NaN,0,1,0,NaN,NaN,NaN,NaN,NaN,trial_left,greenBox.png,greenBox.png,blueBox.png,al2_uncon.png,30,19,NaN,NaN,0.15,0.15,0,1,0,0,Stable,Stable,1.252,1.193,0.853,2.681,inexpert
95,1671326369996,18/12/2022 01:19:29,1671326369937,0,18/12/2022 01:19:29,109680,37,task-qrxs,repeat-7g8d#1->-repeat-38fk#1->-repeat-qjz7#1->-repeat-5t6i#1,26007700,BLIND,7679970,NaN,complete,NaN,NaN,computer,Desktop or Laptop,Windows 10,Chrome 108.0.0.0,1280x720,1280x720,End of Day 1,SLS,90,A,Pass,End of Day 1,Pass,NaN,NaN,NaN,Pass,NaN,Pass,NaN,schedule_B,schedule_B,20,10,2,individual,Zone4,timelimit_screen,1000.51699999999,NaN,NaN,,NaN,0,1,0,NaN,NaN,1,NaN,NaN,trial_left,greenBox.png,greenBox.png,blueBox.png,al2_uncon.png,30,19,NaN,NaN,0.15,0.15,0,1,0,0,Stable,Stable,1.252,1.193,0.853,2.681,inexpert
96,1671326370986,18/12/2022 01:19:30,1671326370941,0,18/12/2022 01:19:30,109680,37,task-qrxs,repeat-7g8d#1->-repeat-38fk#1->-repeat-qjz7#1->-repeat-5t6i#1,26007700,BLIND,7679970,NaN,complete,NaN,NaN,computer,Desktop or Laptop,Windows 10,Chrome 108.0.0.0,1280x720,1280x720,End of Day 1,SLS,90,A,Pass,End of Day 1,Pass,NaN,NaN,NaN,Pass,NaN,Pass,NaN,schedule_B,schedule_B,20,10,3,offer,Zone2,response_button_image,982.299999982119,NaN,NaN,greenBox.png,1,1,0,0,NaN,NaN,NaN,NaN,NaN,trial_left,greenBox.png,greenBox.png,blueBox.png,al2_uncon.png,30,19,NaN,NaN,0.15,0.15,0,1,0,0,Stable,Stable,1.252,1.193,0.853,2.681,inexpert
97,1671326373004,18/12/2022 01:19:33,1671326372936,0,18/12/2022 01:19:32,109680,37,task-qrxs,repeat-7g8d#1->-repeat-38fk#1->-repeat-qjz7#1->-repeat-5t6i#1,26007700,BLIND,7679970,NaN,complete,NaN,NaN,computer,Desktop or Laptop,Windows 10,Chrome 108.0.0.0,1280x720,1280x720,End of Day 1,SLS,90,A,Pass,End of Day 1,Pass,NaN,NaN,NaN,Pass,NaN,Pass,NaN,schedule_B,schedule_B,20,10,4,feedback_l,Zone7,timelimit_screen,2000.34,NaN,NaN,,NaN,0,1,0,NaN,NaN,1,NaN,NaN,trial_left,greenBox.png,greenBox.png,blueBox.png,al2_uncon.png,30,19,NaN,NaN,0.15,0.15,0,1,0,0,Stable,Stable,1.252,1.193,0.853,2.681,inexpert
98,1671326373131,18/12/2022 01:19:33,1671326373086,0,18/12/2022 01:19:33,109680,37,task-qrxs,repeat-7g8d#1->-repeat-38fk#1->-repeat-qjz7#1->-repeat-5t6i#1,26007700,BLIND,7679970,NaN,complete,NaN,NaN,computer,Desktop or Laptop,Windows 10,Chrome 108.0.0.0,1280x720,1280x720,End of Day 1,SLS,90,A,Pass,End of Day 1,Pass,NaN,NaN,NaN,Pass,NaN,Pass,NaN,schedule_B,schedule_B,20,10,6,end,Zone1,timelimit_screen,150.019,NaN,NaN,,NaN,0,1,0,NaN,NaN,1,NaN,NaN,trial_left,greenBox.png,greenBox.png,blueBox.png,al2_uncon.png,30,19,NaN,NaN,0.15,0.15,0,1,0,0,Stable,Stable,1.252,1.193,0.853,2.681,inexpert
99,1671326373834,18/12/2022 01:19:33,1671326373788,0,18/12/2022 01:19:33,109680,37,task-qrxs,repeat-7g8d#1->-repeat-38fk#1->-repeat-qjz7#1->-repeat-5t6i#1,26007700,BLIND,7679970,NaN,complete,NaN,NaN,computer,Desktop or Laptop,Windows 10,Chrome 108.0.0.0,1280x720,1280x720,End of Day 1,SLS,90,A,Pass,End of Day 1,Pass,NaN,NaN,NaN,Pass,NaN,Pass,NaN,schedule_B,schedule_B,21,10,1,Screen 1,Zone1,continue_button,669,NaN,NaN,,NaN,0,1,0,NaN,NaN,NaN,NaN,NaN,trial_right,greenBox.png,greenBox.png,blueBox.png,al2_uncon.png,41,20,NaN,NaN,0.15,0.15,0,0,1,0,Stable,Stable,3.521,1.723,1.37,1.655,inexpert
100,1671326374834,18/12/2022 01:19:34,1671326374788,0,18/12/2022 01:19:34,109680,37,task-qrxs,repeat-7g8d#1->-repeat-38fk#1->-repeat-qjz7#1->-repeat-5t6i#1,26007700,BLIND,7679970,NaN,complete,NaN,NaN,computer,Desktop or Laptop,Windows 10,Chrome 108.0.0.0,1280x720,1280x720,End of Day 1,SLS,90,A,Pass,End of Day 1,Pass,NaN,NaN,NaN,Pass,NaN,Pass,NaN,schedule_B,schedule_B,21,10,2,individual,Zone4,timelimit_screen,999.830000000002,NaN,NaN,,NaN,0,1,0,NaN,NaN,1,NaN,NaN,trial_right,greenBox.png,greenBox.png,blueBox.png,al2_uncon.png,41,20,NaN,NaN,0.15,0.15,0,0,1,0,Stable,Stable,3.521,1.723,1.37,1.655,inexpert
101,1671326375486,18/12/2022 01:19:35,1671326375434,0,18/12/2022 01:19:35,109680,37,task-qrxs,repeat-7g8d#1->-repeat-38fk#1->-repeat-qjz7#1->-repeat-5t6i#1,26007700,BLIND,7679970,NaN,complete,NaN,NaN,computer,Desktop or Laptop,Windows 10,Chrome 108.0.0.0,1280x720,1280x720,End of Day 1,SLS,90,A,Pass,End of Day 1,Pass,NaN,NaN,NaN,Pass,NaN,Pass,NaN,schedule_B,schedule_B,21,10,3,offer,Zone2,response_button_image,628.40000000596,NaN,NaN,greenBox.png,1,1,0,0,NaN,NaN,NaN,NaN,NaN,trial_right,greenBox.png,greenBox.png,blueBox.png,al2_uncon.png,41,20,NaN,NaN,0.15,0.15,0,0,1,0,Stable,Stable,3.521,1.723,1.37,1.655,inexpert
102,1671326377491,18/12/2022 01:19:37,1671326377438,0,18/12/2022 01:19:37,109680,37,task-qrxs,repeat-7g8d#1->-repeat-38fk#1->-repeat-qjz7#1->-repeat-5t6i#1,26007700,BLIND,7679970,NaN,complete,NaN,NaN,computer,Desktop or Laptop,Windows 10,Chrome 108.0.0.0,1280x720,1280x720,End of Day 1,SLS,90,A,Pass,End of Day 1,Pass,NaN,NaN,NaN,Pass,NaN,Pass,NaN,schedule_B,schedule_B,21,10,4,feedback_l,Zone7,timelimit_screen,1999.72,NaN,NaN,,NaN,0,1,0,NaN,NaN,1,NaN,NaN,trial_right,greenBox.png,greenBox.png,blueBox.png,al2_uncon.png,41,20,NaN,NaN,0.15,0.15,0,0,1,0,Stable,Stable,3.521,1.723,1.37,1.655,inexpert
103,1671326377642,18/12/2022 01:19:37,1671326377582,0,18/12/2022 01:19:37,109680,37,task-qrxs,repeat-7g8d#1->-repeat-38fk#1->-repeat-qjz7#1->-repeat-5t6i#1,26007700,BLIND,7679970,NaN,complete,NaN,NaN,computer,Desktop or Laptop,Windows 10,Chrome 108.0.0.0,1280x720,1280x720,End of Day 1,SLS,90,A,Pass,End of Day 1,Pass,NaN,NaN,NaN,Pass,NaN,Pass,NaN,schedule_B,schedule_B,21,10,6,end,Zone1,timelimit_screen,150.676000000007,NaN,NaN,,NaN,0,1,0,NaN,NaN,1,NaN,NaN,trial_right,greenBox.png,greenBox.png,blueBox.png,al2_uncon.png,41,20,NaN,NaN,0.15,0.15,0,0,1,0,Stable,Stable,3.521,1.723,1.37,1.655,inexpert
104,1671326378492,18/12/2022 01:19:38,1671326378430,0,18/12/2022 01:19:38,109680,37,task-qrxs,repeat-7g8d#1->-repeat-38fk#1->-repeat-qjz7#1->-repeat-5t6i#1,26007700,BLIND,7679970,NaN,complete,NaN,NaN,computer,Desktop or Laptop,Windows 10,Chrome 108.0.0.0,1280x720,1280x720,End of Day 1,SLS,90,A,Pass,End of Day 1,Pass,NaN,NaN,NaN,Pass,NaN,Pass,NaN,schedule_B,schedule_B,22,11,1,Screen 1,Zone1,continue_button,816.5,NaN,NaN,,NaN,0,1,0,NaN,NaN,NaN,NaN,NaN,trial_left,blueBox.png,blueBox.png,greenBox.png,al2_uncon.png,42,21,NaN,NaN,0.85,0.15,1,1,1,1,Stable,Stable,2.336,0.651,1.685,2.882,inexpert
105,1671326379471,18/12/2022 01:19:39,1671326379415,0,18/12/2022 01:19:39,109680,37,task-qrxs,repeat-7g8d#1->-repeat-38fk#1->-repeat-qjz7#1->-repeat-5t6i#1,26007700,BLIND,7679970,NaN,complete,NaN,NaN,computer,Desktop or Laptop,Windows 10,Chrome 108.0.0.0,1280x720,1280x720,End of Day 1,SLS,90,A,Pass,End of Day 1,Pass,NaN,NaN,NaN,Pass,NaN,Pass,NaN,schedule_B,schedule_B,22,11,2,individual,Zone4,timelimit_screen,999.056999999986,NaN,NaN,,NaN,0,1,0,NaN,NaN,1,NaN,NaN,trial_left,blueBox.png,blueBox.png,greenBox.png,al2_uncon.png,42,21,NaN,NaN,0.85,0.15,1,1,1,1,Stable,Stable,2.336,0.651,1.685,2.882,inexpert
106,1671326380027,18/12/2022 01:19:40,1671326379968,0,18/12/2022 01:19:39,109680,37,task-qrxs,repeat-7g8d#1->-repeat-38fk#1->-repeat-qjz7#1->-repeat-5t6i#1,26007700,BLIND,7679970,NaN,complete,NaN,NaN,computer,Desktop or Laptop,Windows 10,Chrome 108.0.0.0,1280x720,1280x720,End of Day 1,SLS,90,A,Pass,End of Day 1,Pass,NaN,NaN,NaN,Pass,NaN,Pass,NaN,schedule_B,schedule_B,22,11,3,offer,bluebox,response_button_image,531.199999988079,NaN,NaN,greenBox.png,1,0,1,0,NaN,NaN,NaN,NaN,NaN,trial_left,blueBox.png,blueBox.png,greenBox.png,al2_uncon.png,42,21,NaN,NaN,0.85,0.15,1,1,1,1,Stable,Stable,2.336,0.651,1.685,2.882,inexpert
107,1671326382024,18/12/2022 01:19:42,1671326381965,0,18/12/2022 01:19:41,109680,37,task-qrxs,repeat-7g8d#1->-repeat-38fk#1->-repeat-qjz7#1->-repeat-5t6i#1,26007700,BLIND,7679970,NaN,complete,NaN,NaN,computer,Desktop or Laptop,Windows 10,Chrome 108.0.0.0,1280x720,1280x720,End of Day 1,SLS,90,A,Pass,End of Day 1,Pass,NaN,NaN,NaN,Pass,NaN,Pass,NaN,schedule_B,schedule_B,22,11,5,feedback_r,Zone7,timelimit_screen,2000.383,NaN,NaN,,NaN,0,1,0,NaN,NaN,1,NaN,NaN,trial_left,blueBox.png,blueBox.png,greenBox.png,al2_uncon.png,42,21,NaN,NaN,0.85,0.15,1,1,1,1,Stable,Stable,2.336,0.651,1.685,2.882,inexpert
108,1671326382162,18/12/2022 01:19:42,1671326382115,0,18/12/2022 01:19:42,109680,37,task-qrxs,repeat-7g8d#1->-repeat-38fk#1->-repeat-qjz7#1->-repeat-5t6i#1,26007700,BLIND,7679970,NaN,complete,NaN,NaN,computer,Desktop or Laptop,Windows 10,Chrome 108.0.0.0,1280x720,1280x720,End of Day 1,SLS,90,A,Pass,End of Day 1,Pass,NaN,NaN,NaN,Pass,NaN,Pass,NaN,schedule_B,schedule_B,22,11,6,end,Zone1,timelimit_screen,149.971000000005,NaN,NaN,,NaN,0,1,0,NaN,NaN,1,NaN,NaN,trial_left,blueBox.png,blueBox.png,greenBox.png,al2_uncon.png,42,21,NaN,NaN,0.85,0.15,1,1,1,1,Stable,Stable,2.336,0.651,1.685,2.882,inexpert
109,1671326383048,18/12/2022 01:19:43,1671326382993,0,18/12/2022 01:19:42,109680,37,task-qrxs,repeat-7g8d#1->-repeat-38fk#1->-repeat-qjz7#1->-repeat-5t6i#1,26007700,BLIND,7679970,NaN,complete,NaN,NaN,computer,Desktop or Laptop,Windows 10,Chrome 108.0.0.0,1280x720,1280x720,End of Day 1,SLS,90,A,Pass,End of Day 1,Pass,NaN,NaN,NaN,Pass,NaN,Pass,NaN,schedule_B,schedule_B,23,11,1,Screen 1,Zone1,continue_button,844.700000017881,NaN,NaN,,NaN,0,1,0,NaN,NaN,NaN,NaN,NaN,trial_right,blueBox.png,blueBox.png,greenBox.png,al2_uncon.png,43,22,NaN,NaN,0.85,0.15,1,0,0,1,Stable,Stable,3.622,1.319,1.193,1.067,inexpert
110,1671326384035,18/12/2022 01:19:44,1671326383981,0,18/12/2022 01:19:43,109680,37,task-qrxs,repeat-7g8d#1->-repeat-38fk#1->-repeat-qjz7#1->-repeat-5t6i#1,26007700,BLIND,7679970,NaN,complete,NaN,NaN,computer,Desktop or Laptop,Windows 10,Chrome 108.0.0.0,1280x720,1280x720,End of Day 1,SLS,90,A,Pass,End of Day 1,Pass,NaN,NaN,NaN,Pass,NaN,Pass,NaN,schedule_B,schedule_B,23,11,2,individual,Zone4,timelimit_screen,1000.50599999999,NaN,NaN,,NaN,0,1,0,NaN,NaN,1,NaN,NaN,trial_right,blueBox.png,blueBox.png,greenBox.png,al2_uncon.png,43,22,NaN,NaN,0.85,0.15,1,0,0,1,Stable,Stable,3.622,1.319,1.193,1.067,inexpert
111,1671326384787,18/12/2022 01:19:44,1671326384715,0,18/12/2022 01:19:44,109680,37,task-qrxs,repeat-7g8d#1->-repeat-38fk#1->-repeat-qjz7#1->-repeat-5t6i#1,26007700,BLIND,7679970,NaN,complete,NaN,NaN,computer,Desktop or Laptop,Windows 10,Chrome 108.0.0.0,1280x720,1280x720,End of Day 1,SLS,90,A,Pass,End of Day 1,Pass,NaN,NaN,NaN,Pass,NaN,Pass,NaN,schedule_B,schedule_B,23,11,3,offer,Zone3,response_button_image,714.90000000596,NaN,NaN,greenBox.png,1,0,1,0,NaN,NaN,NaN,NaN,NaN,trial_right,blueBox.png,blueBox.png,greenBox.png,al2_uncon.png,43,22,NaN,NaN,0.85,0.15,1,0,0,1,Stable,Stable,3.622,1.319,1.193,1.067,inexpert
112,1671326386780,18/12/2022 01:19:46,1671326386714,0,18/12/2022 01:19:46,109680,37,task-qrxs,repeat-7g8d#1->-repeat-38fk#1->-repeat-qjz7#1->-repeat-5t6i#1,26007700,BLIND,7679970,NaN,complete,NaN,NaN,computer,Desktop or Laptop,Windows 10,Chrome 108.0.0.0,1280x720,1280x720,End of Day 1,SLS,90,A,Pass,End of Day 1,Pass,NaN,NaN,NaN,Pass,NaN,Pass,NaN,schedule_B,schedule_B,23,11,5,feedback_r,Zone7,timelimit_screen,1999.745,NaN,NaN,,NaN,0,1,0,NaN,NaN,1,NaN,NaN,trial_right,blueBox.png,blueBox.png,greenBox.png,al2_uncon.png,43,22,NaN,NaN,0.85,0.15,1,0,0,1,Stable,Stable,3.622,1.319,1.193,1.067,inexpert
113,1671326386914,18/12/2022 01:19:46,1671326386864,0,18/12/2022 01:19:46,109680,37,task-qrxs,repeat-7g8d#1->-repeat-38fk#1->-repeat-qjz7#1->-repeat-5t6i#1,26007700,BLIND,7679970,NaN,complete,NaN,NaN,computer,Desktop or Laptop,Windows 10,Chrome 108.0.0.0,1280x720,1280x720,End of Day 1,SLS,90,A,Pass,End of Day 1,Pass,NaN,NaN,NaN,Pass,NaN,Pass,NaN,schedule_B,schedule_B,23,11,6,end,Zone1,timelimit_screen,150.667000000001,NaN,NaN,,NaN,0,1,0,NaN,NaN,1,NaN,NaN,trial_right,blueBox.png,blueBox.png,greenBox.png,al2_uncon.png,43,22,NaN,NaN,0.85,0.15,1,0,0,1,Stable,Stable,3.622,1.319,1.193,1.067,inexpert
114,1671326387962,18/12/2022 01:19:47,1671326387909,0,18/12/2022 01:19:47,109680,37,task-qrxs,repeat-7g8d#1->-repeat-38fk#1->-repeat-qjz7#1->-repeat-5t6i#1,26007700,BLIND,7679970,NaN,complete,NaN,NaN,computer,Desktop or Laptop,Windows 10,Chrome 108.0.0.0,1280x720,1280x720,End of Day 1,SLS,90,A,Pass,End of Day 1,Pass,NaN,NaN,NaN,Pass,NaN,Pass,NaN,schedule_B,schedule_B,24,12,1,Screen 1,Zone1,continue_button,1013.30000001192,NaN,NaN,,NaN,0,1,0,NaN,NaN,NaN,NaN,NaN,trial_left,blueBox.png,greenBox.png,blueBox.png,al2_uncon.png,44,23,NaN,NaN,0.85,0.15,1,0,0,0,Stable,Stable,1.731,0.853,2,1.202,inexpert
115,1671326388947,18/12/2022 01:19:48,1671326388897,0,18/12/2022 01:19:48,109680,37,task-qrxs,repeat-7g8d#1->-repeat-38fk#1->-repeat-qjz7#1->-repeat-5t6i#1,26007700,BLIND,7679970,NaN,complete,NaN,NaN,computer,Desktop or Laptop,Windows 10,Chrome 108.0.0.0,1280x720,1280x720,End of Day 1,SLS,90,A,Pass,End of Day 1,Pass,NaN,NaN,NaN,Pass,NaN,Pass,NaN,schedule_B,schedule_B,24,12,2,individual,Zone4,timelimit_screen,999.853000000003,NaN,NaN,,NaN,0,1,0,NaN,NaN,1,NaN,NaN,trial_left,blueBox.png,greenBox.png,blueBox.png,al2_uncon.png,44,23,NaN,NaN,0.85,0.15,1,0,0,0,Stable,Stable,1.731,0.853,2,1.202,inexpert
116,1671326389962,18/12/2022 01:19:49,1671326389899,0,18/12/2022 01:19:49,109680,37,task-qrxs,repeat-7g8d#1->-repeat-38fk#1->-repeat-qjz7#1->-repeat-5t6i#1,26007700,BLIND,7679970,NaN,complete,NaN,NaN,computer,Desktop or Laptop,Windows 10,Chrome 108.0.0.0,1280x720,1280x720,End of Day 1,SLS,90,A,Pass,End of Day 1,Pass,NaN,NaN,NaN,Pass,NaN,Pass,NaN,schedule_B,schedule_B,24,12,3,offer,Zone2,response_button_image,983.600000023842,NaN,NaN,greenBox.png,1,0,1,0,NaN,NaN,NaN,NaN,NaN,trial_left,blueBox.png,greenBox.png,blueBox.png,al2_uncon.png,44,23,NaN,NaN,0.85,0.15,1,0,0,0,Stable,Stable,1.731,0.853,2,1.202,inexpert
117,1671326391931,18/12/2022 01:19:51,1671326391879,0,18/12/2022 01:19:51,109680,37,task-qrxs,repeat-7g8d#1->-repeat-38fk#1->-repeat-qjz7#1->-repeat-5t6i#1,26007700,BLIND,7679970,NaN,complete,NaN,NaN,computer,Desktop or Laptop,Windows 10,Chrome 108.0.0.0,1280x720,1280x720,End of Day 1,SLS,90,A,Pass,End of Day 1,Pass,NaN,NaN,NaN,Pass,NaN,Pass,NaN,schedule_B,schedule_B,24,12,4,feedback_l,Zone7,timelimit_screen,1999.519,NaN,NaN,,NaN,0,1,0,NaN,NaN,1,NaN,NaN,trial_left,blueBox.png,greenBox.png,blueBox.png,al2_uncon.png,44,23,NaN,NaN,0.85,0.15,1,0,0,0,Stable,Stable,1.731,0.853,2,1.202,inexpert
118,1671326392082,18/12/2022 01:19:52,1671326392029,0,18/12/2022 01:19:52,109680,37,task-qrxs,repeat-7g8d#1->-repeat-38fk#1->-repeat-qjz7#1->-repeat-5t6i#1,26007700,BLIND,7679970,NaN,complete,NaN,NaN,computer,Desktop or Laptop,Windows 10,Chrome 108.0.0.0,1280x720,1280x720,End of Day 1,SLS,90,A,Pass,End of Day 1,Pass,NaN,NaN,NaN,Pass,NaN,Pass,NaN,schedule_B,schedule_B,24,12,6,end,Zone1,timelimit_screen,149.73000000001,NaN,NaN,,NaN,0,1,0,NaN,NaN,1,NaN,NaN,trial_left,blueBox.png,greenBox.png,blueBox.png,al2_uncon.png,44,23,NaN,NaN,0.85,0.15,1,0,0,0,Stable,Stable,1.731,0.853,2,1.202,inexpert
119,1671326392945,18/12/2022 01:19:52,1671326392895,0,18/12/2022 01:19:52,109680,37,task-qrxs,repeat-7g8d#1->-repeat-38fk#1->-repeat-qjz7#1->-repeat-5t6i#1,26007700,BLIND,7679970,NaN,complete,NaN,NaN,computer,Desktop or Laptop,Windows 10,Chrome 108.0.0.0,1280x720,1280x720,End of Day 1,SLS,90,A,Pass,End of Day 1,Pass,NaN,NaN,NaN,Pass,NaN,Pass,NaN,schedule_B,schedule_B,25,13,1,Screen 1,Zone1,continue_button,829.40000000596,NaN,NaN,,NaN,0,1,0,NaN,NaN,NaN,NaN,NaN,trial_left,blueBox.png,blueBox.png,greenBox.png,al2_uncon.png,45,24,NaN,NaN,0.85,0.15,1,1,1,1,Stable,Stable,2.109,1.798,1.508,2.782,inexpert
120,1671326393938,18/12/2022 01:19:53,1671326393879,0,18/12/2022 01:19:53,109680,37,task-qrxs,repeat-7g8d#1->-repeat-38fk#1->-repeat-qjz7#1->-repeat-5t6i#1,26007700,BLIND,7679970,NaN,complete,NaN,NaN,computer,Desktop or Laptop,Windows 10,Chrome 108.0.0.0,1280x720,1280x720,End of Day 1,SLS,90,A,Pass,End of Day 1,Pass,NaN,NaN,NaN,Pass,NaN,Pass,NaN,schedule_B,schedule_B,25,13,2,individual,Zone4,timelimit_screen,999.236000000004,NaN,NaN,,NaN,0,1,0,NaN,NaN,1,NaN,NaN,trial_left,blueBox.png,blueBox.png,greenBox.png,al2_uncon.png,45,24,NaN,NaN,0.85,0.15,1,1,1,1,Stable,Stable,2.109,1.798,1.508,2.782,inexpert
121,1671326394472,18/12/2022 01:19:54,1671326394422,0,18/12/2022 01:19:54,109680,37,task-qrxs,repeat-7g8d#1->-repeat-38fk#1->-repeat-qjz7#1->-repeat-5t6i#1,26007700,BLIND,7679970,NaN,complete,NaN,NaN,computer,Desktop or Laptop,Windows 10,Chrome 108.0.0.0,1280x720,1280x720,End of Day 1,SLS,90,A,Pass,End of Day 1,Pass,NaN,NaN,NaN,Pass,NaN,Pass,NaN,schedule_B,schedule_B,25,13,3,offer,Zone2,response_button_image,525.799999982119,NaN,NaN,blueBox.png,1,1,0,0,NaN,NaN,NaN,NaN,NaN,trial_left,blueBox.png,blueBox.png,greenBox.png,al2_uncon.png,45,24,NaN,NaN,0.85,0.15,1,1,1,1,Stable,Stable,2.109,1.798,1.508,2.782,inexpert
122,1671326396480,18/12/2022 01:19:56,1671326396413,0,18/12/2022 01:19:56,109680,37,task-qrxs,repeat-7g8d#1->-repeat-38fk#1->-repeat-qjz7#1->-repeat-5t6i#1,26007700,BLIND,7679970,NaN,complete,NaN,NaN,computer,Desktop or Laptop,Windows 10,Chrome 108.0.0.0,1280x720,1280x720,End of Day 1,SLS,90,A,Pass,End of Day 1,Pass,NaN,NaN,NaN,Pass,NaN,Pass,NaN,schedule_B,schedule_B,25,13,4,feedback_l,Zone7,timelimit_screen,1999.68799999999,NaN,NaN,,NaN,0,1,0,NaN,NaN,1,NaN,NaN,trial_left,blueBox.png,blueBox.png,greenBox.png,al2_uncon.png,45,24,NaN,NaN,0.85,0.15,1,1,1,1,Stable,Stable,2.109,1.798,1.508,2.782,inexpert
123,1671326396625,18/12/2022 01:19:56,1671326396569,0,18/12/2022 01:19:56,109680,37,task-qrxs,repeat-7g8d#1->-repeat-38fk#1->-repeat-qjz7#1->-repeat-5t6i#1,26007700,BLIND,7679970,NaN,complete,NaN,NaN,computer,Desktop or Laptop,Windows 10,Chrome 108.0.0.0,1280x720,1280x720,End of Day 1,SLS,90,A,Pass,End of Day 1,Pass,NaN,NaN,NaN,Pass,NaN,Pass,NaN,schedule_B,schedule_B,25,13,6,end,Zone1,timelimit_screen,149.368000000002,NaN,NaN,,NaN,0,1,0,NaN,NaN,1,NaN,NaN,trial_left,blueBox.png,blueBox.png,greenBox.png,al2_uncon.png,45,24,NaN,NaN,0.85,0.15,1,1,1,1,Stable,Stable,2.109,1.798,1.508,2.782,inexpert
124,1671326397439,18/12/2022 01:19:57,1671326397378,0,18/12/2022 01:19:57,109680,37,task-qrxs,repeat-7g8d#1->-repeat-38fk#1->-repeat-qjz7#1->-repeat-5t6i#1,26007700,BLIND,7679970,NaN,complete,NaN,NaN,computer,Desktop or Laptop,Windows 10,Chrome 108.0.0.0,1280x720,1280x720,End of Day 1,SLS,90,A,Pass,End of Day 1,Pass,NaN,NaN,NaN,Pass,NaN,Pass,NaN,schedule_B,schedule_B,26,12,1,Screen 1,Zone1,continue_button,776.399999976158,NaN,NaN,,NaN,0,1,0,NaN,NaN,NaN,NaN,NaN,trial_right,blueBox.png,greenBox.png,blueBox.png,al2_uncon.png,46,25,NaN,NaN,0.85,0.15,1,1,1,0,Stable,Stable,2.916,1.294,1.962,2.361,inexpert
125,1671326398411,18/12/2022 01:19:58,1671326398363,0,18/12/2022 01:19:58,109680,37,task-qrxs,repeat-7g8d#1->-repeat-38fk#1->-repeat-qjz7#1->-repeat-5t6i#1,26007700,BLIND,7679970,NaN,complete,NaN,NaN,computer,Desktop or Laptop,Windows 10,Chrome 108.0.0.0,1280x720,1280x720,End of Day 1,SLS,90,A,Pass,End of Day 1,Pass,NaN,NaN,NaN,Pass,NaN,Pass,NaN,schedule_B,schedule_B,26,12,2,individual,Zone4,timelimit_screen,1000.69900000001,NaN,NaN,,NaN,0,1,0,NaN,NaN,1,NaN,NaN,trial_right,blueBox.png,greenBox.png,blueBox.png,al2_uncon.png,46,25,NaN,NaN,0.85,0.15,1,1,1,0,Stable,Stable,2.916,1.294,1.962,2.361,inexpert
126,1671326398898,18/12/2022 01:19:58,1671326398843,0,18/12/2022 01:19:58,109680,37,task-qrxs,repeat-7g8d#1->-repeat-38fk#1->-repeat-qjz7#1->-repeat-5t6i#1,26007700,BLIND,7679970,NaN,complete,NaN,NaN,computer,Desktop or Laptop,Windows 10,Chrome 108.0.0.0,1280x720,1280x720,End of Day 1,SLS,90,A,Pass,End of Day 1,Pass,NaN,NaN,NaN,Pass,NaN,Pass,NaN,schedule_B,schedule_B,26,12,3,offer,Zone3,response_button_image,462.600000023842,NaN,NaN,blueBox.png,1,1,0,0,NaN,NaN,NaN,NaN,NaN,trial_right,blueBox.png,greenBox.png,blueBox.png,al2_uncon.png,46,25,NaN,NaN,0.85,0.15,1,1,1,0,Stable,Stable,2.916,1.294,1.962,2.361,inexpert
127,1671326400888,18/12/2022 01:20:00,1671326400828,0,18/12/2022 01:20:00,109680,37,task-qrxs,repeat-7g8d#1->-repeat-38fk#1->-repeat-qjz7#1->-repeat-5t6i#1,26007700,BLIND,7679970,NaN,complete,NaN,NaN,computer,Desktop or Laptop,Windows 10,Chrome 108.0.0.0,1280x720,1280x720,End of Day 1,SLS,90,A,Pass,End of Day 1,Pass,NaN,NaN,NaN,Pass,NaN,Pass,NaN,schedule_B,schedule_B,26,12,5,feedback_r,Zone7,timelimit_screen,1999.666,NaN,NaN,,NaN,0,1,0,NaN,NaN,1,NaN,NaN,trial_right,blueBox.png,greenBox.png,blueBox.png,al2_uncon.png,46,25,NaN,NaN,0.85,0.15,1,1,1,0,Stable,Stable,2.916,1.294,1.962,2.361,inexpert
128,1671326401036,18/12/2022 01:20:01,1671326400986,0,18/12/2022 01:20:00,109680,37,task-qrxs,repeat-7g8d#1->-repeat-38fk#1->-repeat-qjz7#1->-repeat-5t6i#1,26007700,BLIND,7679970,NaN,complete,NaN,NaN,computer,Desktop or Laptop,Windows 10,Chrome 108.0.0.0,1280x720,1280x720,End of Day 1,SLS,90,A,Pass,End of Day 1,Pass,NaN,NaN,NaN,Pass,NaN,Pass,NaN,schedule_B,schedule_B,26,12,6,end,Zone1,timelimit_screen,150.070000000007,NaN,NaN,,NaN,0,1,0,NaN,NaN,1,NaN,NaN,trial_right,blueBox.png,greenBox.png,blueBox.png,al2_uncon.png,46,25,NaN,NaN,0.85,0.15,1,1,1,0,Stable,Stable,2.916,1.294,1.962,2.361,inexpert
129,1671326402188,18/12/2022 01:20:02,1671326402139,0,18/12/2022 01:20:02,109680,37,task-qrxs,repeat-7g8d#1->-repeat-38fk#1->-repeat-qjz7#1->-repeat-5t6i#1,26007700,BLIND,7679970,NaN,complete,NaN,NaN,computer,Desktop or Laptop,Windows 10,Chrome 108.0.0.0,1280x720,1280x720,End of Day 1,SLS,90,A,Pass,End of Day 1,Pass,NaN,NaN,NaN,Pass,NaN,Pass,NaN,schedule_B,schedule_B,27,13,1,Screen 1,Zone1,continue_button,1120.70000001788,NaN,NaN,,NaN,0,1,0,NaN,NaN,NaN,NaN,NaN,trial_right,blueBox.png,blueBox.png,greenBox.png,al2_uncon.png,47,26,NaN,NaN,0.85,0.15,1,0,0,1,Stable,Stable,2.487,1.697,1.13,1.286,inexpert
130,1671326403179,18/12/2022 01:20:03,1671326403129,0,18/12/2022 01:20:03,109680,37,task-qrxs,repeat-7g8d#1->-repeat-38fk#1->-repeat-qjz7#1->-repeat-5t6i#1,26007700,BLIND,7679970,NaN,complete,NaN,NaN,computer,Desktop or Laptop,Windows 10,Chrome 108.0.0.0,1280x720,1280x720,End of Day 1,SLS,90,A,Pass,End of Day 1,Pass,NaN,NaN,NaN,Pass,NaN,Pass,NaN,schedule_B,schedule_B,27,13,2,individual,Zone4,timelimit_screen,999.746999999974,NaN,NaN,,NaN,0,1,0,NaN,NaN,1,NaN,NaN,trial_right,blueBox.png,blueBox.png,greenBox.png,al2_uncon.png,47,26,NaN,NaN,0.85,0.15,1,0,0,1,Stable,Stable,2.487,1.697,1.13,1.286,inexpert
131,1671326403814,18/12/2022 01:20:03,1671326403764,0,18/12/2022 01:20:03,109680,37,task-qrxs,repeat-7g8d#1->-repeat-38fk#1->-repeat-qjz7#1->-repeat-5t6i#1,26007700,BLIND,7679970,NaN,complete,NaN,NaN,computer,Desktop or Laptop,Windows 10,Chrome 108.0.0.0,1280x720,1280x720,End of Day 1,SLS,90,A,Pass,End of Day 1,Pass,NaN,NaN,NaN,Pass,NaN,Pass,NaN,schedule_B,schedule_B,27,13,3,offer,Zone2,response_button_image,615.800000011921,NaN,NaN,blueBox.png,1,1,0,0,NaN,NaN,NaN,NaN,NaN,trial_right,blueBox.png,blueBox.png,greenBox.png,al2_uncon.png,47,26,NaN,NaN,0.85,0.15,1,0,0,1,Stable,Stable,2.487,1.697,1.13,1.286,inexpert
132,1671326405825,18/12/2022 01:20:05,1671326405760,0,18/12/2022 01:20:05,109680,37,task-qrxs,repeat-7g8d#1->-repeat-38fk#1->-repeat-qjz7#1->-repeat-5t6i#1,26007700,BLIND,7679970,NaN,complete,NaN,NaN,computer,Desktop or Laptop,Windows 10,Chrome 108.0.0.0,1280x720,1280x720,End of Day 1,SLS,90,A,Pass,End of Day 1,Pass,NaN,NaN,NaN,Pass,NaN,Pass,NaN,schedule_B,schedule_B,27,13,4,feedback_l,Zone7,timelimit_screen,1999.09,NaN,NaN,,NaN,0,1,0,NaN,NaN,1,NaN,NaN,trial_right,blueBox.png,blueBox.png,greenBox.png,al2_uncon.png,47,26,NaN,NaN,0.85,0.15,1,0,0,1,Stable,Stable,2.487,1.697,1.13,1.286,inexpert
133,1671326405966,18/12/2022 01:20:05,1671326405918,0,18/12/2022 01:20:05,109680,37,task-qrxs,repeat-7g8d#1->-repeat-38fk#1->-repeat-qjz7#1->-repeat-5t6i#1,26007700,BLIND,7679970,NaN,complete,NaN,NaN,computer,Desktop or Laptop,Windows 10,Chrome 108.0.0.0,1280x720,1280x720,End of Day 1,SLS,90,A,Pass,End of Day 1,Pass,NaN,NaN,NaN,Pass,NaN,Pass,NaN,schedule_B,schedule_B,27,13,6,end,Zone1,timelimit_screen,149.991999999998,NaN,NaN,,NaN,0,1,0,NaN,NaN,1,NaN,NaN,trial_right,blueBox.png,blueBox.png,greenBox.png,al2_uncon.png,47,26,NaN,NaN,0.85,0.15,1,0,0,1,Stable,Stable,2.487,1.697,1.13,1.286,inexpert
134,1671326406809,18/12/2022 01:20:06,1671326406754,0,18/12/2022 01:20:06,109680,37,task-qrxs,repeat-7g8d#1->-repeat-38fk#1->-repeat-qjz7#1->-repeat-5t6i#1,26007700,BLIND,7679970,NaN,complete,NaN,NaN,computer,Desktop or Laptop,Windows 10,Chrome 108.0.0.0,1280x720,1280x720,End of Day 1,SLS,90,A,Pass,End of Day 1,Pass,NaN,NaN,NaN,Pass,NaN,Pass,NaN,schedule_B,schedule_B,28,14,1,Screen 1,Zone1,continue_button,805.800000011921,NaN,NaN,,NaN,0,1,0,NaN,NaN,NaN,NaN,NaN,trial_left,blueBox.png,greenBox.png,blueBox.png,al2_uncon.png,48,27,NaN,NaN,0.85,0.15,1,0,0,0,Stable,Stable,3.824,1.634,0.992,2.244,inexpert
135,1671326407800,18/12/2022 01:20:07,1671326407744,0,18/12/2022 01:20:07,109680,37,task-qrxs,repeat-7g8d#1->-repeat-38fk#1->-repeat-qjz7#1->-repeat-5t6i#1,26007700,BLIND,7679970,NaN,complete,NaN,NaN,computer,Desktop or Laptop,Windows 10,Chrome 108.0.0.0,1280x720,1280x720,End of Day 1,SLS,90,A,Pass,End of Day 1,Pass,NaN,NaN,NaN,Pass,NaN,Pass,NaN,schedule_B,schedule_B,28,14,2,individual,Zone4,timelimit_screen,999.614000000001,NaN,NaN,,NaN,0,1,0,NaN,NaN,1,NaN,NaN,trial_left,blueBox.png,greenBox.png,blueBox.png,al2_uncon.png,48,27,NaN,NaN,0.85,0.15,1,0,0,0,Stable,Stable,3.824,1.634,0.992,2.244,inexpert
136,1671326408621,18/12/2022 01:20:08,1671326408546,0,18/12/2022 01:20:08,109680,37,task-qrxs,repeat-7g8d#1->-repeat-38fk#1->-repeat-qjz7#1->-repeat-5t6i#1,26007700,BLIND,7679970,NaN,complete,NaN,NaN,computer,Desktop or Laptop,Windows 10,Chrome 108.0.0.0,1280x720,1280x720,End of Day 1,SLS,90,A,Pass,End of Day 1,Pass,NaN,NaN,NaN,Pass,NaN,Pass,NaN,schedule_B,schedule_B,28,14,3,offer,bluebox,response_button_image,781.699999988079,NaN,NaN,blueBox.png,1,1,0,0,NaN,NaN,NaN,NaN,NaN,trial_left,blueBox.png,greenBox.png,blueBox.png,al2_uncon.png,48,27,NaN,NaN,0.85,0.15,1,0,0,0,Stable,Stable,3.824,1.634,0.992,2.244,inexpert
137,1671326410597,18/12/2022 01:20:10,1671326410544,0,18/12/2022 01:20:10,109680,37,task-qrxs,repeat-7g8d#1->-repeat-38fk#1->-repeat-qjz7#1->-repeat-5t6i#1,26007700,BLIND,7679970,NaN,complete,NaN,NaN,computer,Desktop or Laptop,Windows 10,Chrome 108.0.0.0,1280x720,1280x720,End of Day 1,SLS,90,A,Pass,End of Day 1,Pass,NaN,NaN,NaN,Pass,NaN,Pass,NaN,schedule_B,schedule_B,28,14,5,feedback_r,Zone7,timelimit_screen,1999.89799999999,NaN,NaN,,NaN,0,1,0,NaN,NaN,1,NaN,NaN,trial_left,blueBox.png,greenBox.png,blueBox.png,al2_uncon.png,48,27,NaN,NaN,0.85,0.15,1,0,0,0,Stable,Stable,3.824,1.634,0.992,2.244,inexpert
138,1671326410746,18/12/2022 01:20:10,1671326410694,0,18/12/2022 01:20:10,109680,37,task-qrxs,repeat-7g8d#1->-repeat-38fk#1->-repeat-qjz7#1->-repeat-5t6i#1,26007700,BLIND,7679970,NaN,complete,NaN,NaN,computer,Desktop or Laptop,Windows 10,Chrome 108.0.0.0,1280x720,1280x720,End of Day 1,SLS,90,A,Pass,End of Day 1,Pass,NaN,NaN,NaN,Pass,NaN,Pass,NaN,schedule_B,schedule_B,28,14,6,end,Zone1,timelimit_screen,149.972999999998,NaN,NaN,,NaN,0,1,0,NaN,NaN,1,NaN,NaN,trial_left,blueBox.png,greenBox.png,blueBox.png,al2_uncon.png,48,27,NaN,NaN,0.85,0.15,1,0,0,0,Stable,Stable,3.824,1.634,0.992,2.244,inexpert
139,1671326411810,18/12/2022 01:20:11,1671326411763,0,18/12/2022 01:20:11,109680,37,task-qrxs,repeat-7g8d#1->-repeat-38fk#1->-repeat-qjz7#1->-repeat-5t6i#1,26007700,BLIND,7679970,NaN,complete,NaN,NaN,computer,Desktop or Laptop,Windows 10,Chrome 108.0.0.0,1280x720,1280x720,End of Day 1,SLS,90,A,Pass,End of Day 1,Pass,NaN,NaN,NaN,Pass,NaN,Pass,NaN,schedule_B,schedule_B,29,14,1,Screen 1,Zone1,continue_button,1030.40000000596,NaN,NaN,,NaN,0,1,0,NaN,NaN,NaN,NaN,NaN,trial_right,blueBox.png,blueBox.png,greenBox.png,al2_uncon.png,49,28,NaN,NaN,0.85,0.15,1,0,0,1,Stable,Stable,2.84,1.937,1.723,2.815,inexpert
140,1671326413052,18/12/2022 01:20:13,1671326412761,0,18/12/2022 01:20:12,109680,37,task-qrxs,repeat-7g8d#1->-repeat-38fk#1->-repeat-qjz7#1->-repeat-5t6i#1,26007700,BLIND,7679970,NaN,complete,NaN,NaN,computer,Desktop or Laptop,Windows 10,Chrome 108.0.0.0,1280x720,1280x720,End of Day 1,SLS,90,A,Pass,End of Day 1,Pass,NaN,NaN,NaN,Pass,NaN,Pass,NaN,schedule_B,schedule_B,29,14,2,individual,Zone4,timelimit_screen,1000.41699999999,NaN,NaN,,NaN,0,1,0,NaN,NaN,1,NaN,NaN,trial_right,blueBox.png,blueBox.png,greenBox.png,al2_uncon.png,49,28,NaN,NaN,0.85,0.15,1,0,0,1,Stable,Stable,2.84,1.937,1.723,2.815,inexpert
141,1671326413692,18/12/2022 01:20:13,1671326413636,0,18/12/2022 01:20:13,109680,37,task-qrxs,repeat-7g8d#1->-repeat-38fk#1->-repeat-qjz7#1->-repeat-5t6i#1,26007700,BLIND,7679970,NaN,complete,NaN,NaN,computer,Desktop or Laptop,Windows 10,Chrome 108.0.0.0,1280x720,1280x720,End of Day 1,SLS,90,A,Pass,End of Day 1,Pass,NaN,NaN,NaN,Pass,NaN,Pass,NaN,schedule_B,schedule_B,29,14,3,offer,Zone2,response_button_image,857.399999976158,NaN,NaN,blueBox.png,1,1,0,0,NaN,NaN,NaN,NaN,NaN,trial_right,blueBox.png,blueBox.png,greenBox.png,al2_uncon.png,49,28,NaN,NaN,0.85,0.15,1,0,0,1,Stable,Stable,2.84,1.937,1.723,2.815,inexpert
142,1671326415683,18/12/2022 01:20:15,1671326415627,0,18/12/2022 01:20:15,109680,37,task-qrxs,repeat-7g8d#1->-repeat-38fk#1->-repeat-qjz7#1->-repeat-5t6i#1,26007700,BLIND,7679970,NaN,complete,NaN,NaN,computer,Desktop or Laptop,Windows 10,Chrome 108.0.0.0,1280x720,1280x720,End of Day 1,SLS,90,A,Pass,End of Day 1,Pass,NaN,NaN,NaN,Pass,NaN,Pass,NaN,schedule_B,schedule_B,29,14,4,feedback_l,Zone7,timelimit_screen,2000.448,NaN,NaN,,NaN,0,1,0,NaN,NaN,1,NaN,NaN,trial_right,blueBox.png,blueBox.png,greenBox.png,al2_uncon.png,49,28,NaN,NaN,0.85,0.15,1,0,0,1,Stable,Stable,2.84,1.937,1.723,2.815,inexpert
143,1671326415834,18/12/2022 01:20:15,1671326415776,0,18/12/2022 01:20:15,109680,37,task-qrxs,repeat-7g8d#1->-repeat-38fk#1->-repeat-qjz7#1->-repeat-5t6i#1,26007700,BLIND,7679970,NaN,complete,NaN,NaN,computer,Desktop or Laptop,Windows 10,Chrome 108.0.0.0,1280x720,1280x720,End of Day 1,SLS,90,A,Pass,End of Day 1,Pass,NaN,NaN,NaN,Pass,NaN,Pass,NaN,schedule_B,schedule_B,29,14,6,end,Zone1,timelimit_screen,149.269,NaN,NaN,,NaN,0,1,0,NaN,NaN,1,NaN,NaN,trial_right,blueBox.png,blueBox.png,greenBox.png,al2_uncon.png,49,28,NaN,NaN,0.85,0.15,1,0,0,1,Stable,Stable,2.84,1.937,1.723,2.815,inexpert
144,1671326416823,18/12/2022 01:20:16,1671326416767,0,18/12/2022 01:20:16,109680,37,task-qrxs,repeat-7g8d#1->-repeat-38fk#1->-repeat-qjz7#1->-repeat-5t6i#1,26007700,BLIND,7679970,NaN,complete,NaN,NaN,computer,Desktop or Laptop,Windows 10,Chrome 108.0.0.0,1280x720,1280x720,End of Day 1,SLS,90,A,Pass,End of Day 1,Pass,NaN,NaN,NaN,Pass,NaN,Pass,NaN,schedule_B,schedule_B,30,15,1,Screen 1,Zone1,continue_button,955.699999988079,NaN,NaN,,NaN,0,1,0,NaN,NaN,NaN,NaN,NaN,trial_right,blueBox.png,blueBox.png,greenBox.png,al2_uncon.png,50,29,NaN,NaN,0.85,0.15,1,0,0,1,Stable,Stable,2.941,1.71,0.664,1.336,inexpert
145,1671326417811,18/12/2022 01:20:17,1671326417760,0,18/12/2022 01:20:17,109680,37,task-qrxs,repeat-7g8d#1->-repeat-38fk#1->-repeat-qjz7#1->-repeat-5t6i#1,26007700,BLIND,7679970,NaN,complete,NaN,NaN,computer,Desktop or Laptop,Windows 10,Chrome 108.0.0.0,1280x720,1280x720,End of Day 1,SLS,90,A,Pass,End of Day 1,Pass,NaN,NaN,NaN,Pass,NaN,Pass,NaN,schedule_B,schedule_B,30,15,2,individual,Zone4,timelimit_screen,1000.40399999998,NaN,NaN,,NaN,0,1,0,NaN,NaN,1,NaN,NaN,trial_right,blueBox.png,blueBox.png,greenBox.png,al2_uncon.png,50,29,NaN,NaN,0.85,0.15,1,0,0,1,Stable,Stable,2.941,1.71,0.664,1.336,inexpert
146,1671326418277,18/12/2022 01:20:18,1671326418223,0,18/12/2022 01:20:18,109680,37,task-qrxs,repeat-7g8d#1->-repeat-38fk#1->-repeat-qjz7#1->-repeat-5t6i#1,26007700,BLIND,7679970,NaN,complete,NaN,NaN,computer,Desktop or Laptop,Windows 10,Chrome 108.0.0.0,1280x720,1280x720,End of Day 1,SLS,90,A,Pass,End of Day 1,Pass,NaN,NaN,NaN,Pass,NaN,Pass,NaN,schedule_B,schedule_B,30,15,3,offer,Zone2,response_button_image,445.90000000596,NaN,NaN,blueBox.png,1,1,0,0,NaN,NaN,NaN,NaN,NaN,trial_right,blueBox.png,blueBox.png,greenBox.png,al2_uncon.png,50,29,NaN,NaN,0.85,0.15,1,0,0,1,Stable,Stable,2.941,1.71,0.664,1.336,inexpert
147,1671326420266,18/12/2022 01:20:20,1671326420210,0,18/12/2022 01:20:20,109680,37,task-qrxs,repeat-7g8d#1->-repeat-38fk#1->-repeat-qjz7#1->-repeat-5t6i#1,26007700,BLIND,7679970,NaN,complete,NaN,NaN,computer,Desktop or Laptop,Windows 10,Chrome 108.0.0.0,1280x720,1280x720,End of Day 1,SLS,90,A,Pass,End of Day 1,Pass,NaN,NaN,NaN,Pass,NaN,Pass,NaN,schedule_B,schedule_B,30,15,4,feedback_l,Zone7,timelimit_screen,2000.44400000002,NaN,NaN,,NaN,0,1,0,NaN,NaN,1,NaN,NaN,trial_right,blueBox.png,blueBox.png,greenBox.png,al2_uncon.png,50,29,NaN,NaN,0.85,0.15,1,0,0,1,Stable,Stable,2.941,1.71,0.664,1.336,inexpert
148,1671326420421,18/12/2022 01:20:20,1671326420359,0,18/12/2022 01:20:20,109680,37,task-qrxs,repeat-7g8d#1->-repeat-38fk#1->-repeat-qjz7#1->-repeat-5t6i#1,26007700,BLIND,7679970,NaN,complete,NaN,NaN,computer,Desktop or Laptop,Windows 10,Chrome 108.0.0.0,1280x720,1280x720,End of Day 1,SLS,90,A,Pass,End of Day 1,Pass,NaN,NaN,NaN,Pass,NaN,Pass,NaN,schedule_B,schedule_B,30,15,6,end,Zone1,timelimit_screen,149.905999999988,NaN,NaN,,NaN,0,1,0,NaN,NaN,1,NaN,NaN,trial_right,blueBox.png,blueBox.png,greenBox.png,al2_uncon.png,50,29,NaN,NaN,0.85,0.15,1,0,0,1,Stable,Stable,2.941,1.71,0.664,1.336,inexpert
149,1671326421283,18/12/2022 01:20:21,1671326421234,0,18/12/2022 01:20:21,109680,37,task-qrxs,repeat-7g8d#1->-repeat-38fk#1->-repeat-qjz7#1->-repeat-5t6i#1,26007700,BLIND,7679970,NaN,complete,NaN,NaN,computer,Desktop or Laptop,Windows 10,Chrome 108.0.0.0,1280x720,1280x720,End of Day 1,SLS,90,A,Pass,End of Day 1,Pass,NaN,NaN,NaN,Pass,NaN,Pass,NaN,schedule_B,schedule_B,31,15,1,Screen 1,Zone1,continue_button,841.300000011921,NaN,NaN,,NaN,0,1,0,NaN,NaN,NaN,NaN,NaN,trial_left,blueBox.png,greenBox.png,blueBox.png,al2_uncon.png,61,30,NaN,NaN,0.85,0.15,1,0,0,0,Stable,Stable,2.79,1.735,0.601,2.345,inexpert
150,1671326422282,18/12/2022 01:20:22,1671326422226,0,18/12/2022 01:20:22,109680,37,task-qrxs,repeat-7g8d#1->-repeat-38fk#1->-repeat-qjz7#1->-repeat-5t6i#1,26007700,BLIND,7679970,NaN,complete,NaN,NaN,computer,Desktop or Laptop,Windows 10,Chrome 108.0.0.0,1280x720,1280x720,End of Day 1,SLS,90,A,Pass,End of Day 1,Pass,NaN,NaN,NaN,Pass,NaN,Pass,NaN,schedule_B,schedule_B,31,15,2,individual,Zone4,timelimit_screen,999.982000000018,NaN,NaN,,NaN,0,1,0,NaN,NaN,1,NaN,NaN,trial_left,blueBox.png,greenBox.png,blueBox.png,al2_uncon.png,61,30,NaN,NaN,0.85,0.15,1,0,0,0,Stable,Stable,2.79,1.735,0.601,2.345,inexpert
151,1671326422756,18/12/2022 01:20:22,1671326422708,0,18/12/2022 01:20:22,109680,37,task-qrxs,repeat-7g8d#1->-repeat-38fk#1->-repeat-qjz7#1->-repeat-5t6i#1,26007700,BLIND,7679970,NaN,complete,NaN,NaN,computer,Desktop or Laptop,Windows 10,Chrome 108.0.0.0,1280x720,1280x720,End of Day 1,SLS,90,A,Pass,End of Day 1,Pass,NaN,NaN,NaN,Pass,NaN,Pass,NaN,schedule_B,schedule_B,31,15,3,offer,bluebox,response_button_image,461.799999982119,NaN,NaN,blueBox.png,1,1,0,0,NaN,NaN,NaN,NaN,NaN,trial_left,blueBox.png,greenBox.png,blueBox.png,al2_uncon.png,61,30,NaN,NaN,0.85,0.15,1,0,0,0,Stable,Stable,2.79,1.735,0.601,2.345,inexpert
152,1671326424757,18/12/2022 01:20:24,1671326424692,0,18/12/2022 01:20:24,109680,37,task-qrxs,repeat-7g8d#1->-repeat-38fk#1->-repeat-qjz7#1->-repeat-5t6i#1,26007700,BLIND,7679970,NaN,complete,NaN,NaN,computer,Desktop or Laptop,Windows 10,Chrome 108.0.0.0,1280x720,1280x720,End of Day 1,SLS,90,A,Pass,End of Day 1,Pass,NaN,NaN,NaN,Pass,NaN,Pass,NaN,schedule_B,schedule_B,31,15,5,feedback_r,Zone7,timelimit_screen,1999.70699999999,NaN,NaN,,NaN,0,1,0,NaN,NaN,1,NaN,NaN,trial_left,blueBox.png,greenBox.png,blueBox.png,al2_uncon.png,61,30,NaN,NaN,0.85,0.15,1,0,0,0,Stable,Stable,2.79,1.735,0.601,2.345,inexpert
153,1671326424894,18/12/2022 01:20:24,1671326424842,0,18/12/2022 01:20:24,109680,37,task-qrxs,repeat-7g8d#1->-repeat-38fk#1->-repeat-qjz7#1->-repeat-5t6i#1,26007700,BLIND,7679970,NaN,complete,NaN,NaN,computer,Desktop or Laptop,Windows 10,Chrome 108.0.0.0,1280x720,1280x720,End of Day 1,SLS,90,A,Pass,End of Day 1,Pass,NaN,NaN,NaN,Pass,NaN,Pass,NaN,schedule_B,schedule_B,31,15,6,end,Zone1,timelimit_screen,150.644,NaN,NaN,,NaN,0,1,0,NaN,NaN,1,NaN,NaN,trial_left,blueBox.png,greenBox.png,blueBox.png,al2_uncon.png,61,30,NaN,NaN,0.85,0.15,1,0,0,0,Stable,Stable,2.79,1.735,0.601,2.345,inexpert
154,1671326425712,18/12/2022 01:20:25,1671326425663,0,18/12/2022 01:20:25,109680,37,task-qrxs,repeat-7g8d#1->-repeat-38fk#1->-repeat-qjz7#1->-repeat-5t6i#1,26007700,BLIND,7679970,NaN,complete,NaN,NaN,computer,Desktop or Laptop,Windows 10,Chrome 108.0.0.0,1280x720,1280x720,End of Day 1,SLS,90,A,Pass,End of Day 1,Pass,NaN,NaN,NaN,Pass,NaN,Pass,NaN,schedule_B,schedule_B,32,16,1,Screen 1,Zone1,continue_button,788.5,NaN,NaN,,NaN,0,1,0,NaN,NaN,NaN,NaN,NaN,trial_right,blueBox.png,greenBox.png,blueBox.png,al2_uncon.png,62,31,NaN,NaN,0.85,0.85,1,1,1,0,Volatile,Volatile,2.538,1.672,1.143,1.555,inexpert
155,1671326426709,18/12/2022 01:20:26,1671326426658,0,18/12/2022 01:20:26,109680,37,task-qrxs,repeat-7g8d#1->-repeat-38fk#1->-repeat-qjz7#1->-repeat-5t6i#1,26007700,BLIND,7679970,NaN,complete,NaN,NaN,computer,Desktop or Laptop,Windows 10,Chrome 108.0.0.0,1280x720,1280x720,End of Day 1,SLS,90,A,Pass,End of Day 1,Pass,NaN,NaN,NaN,Pass,NaN,Pass,NaN,schedule_B,schedule_B,32,16,2,individual,Zone4,timelimit_screen,999.350999999995,NaN,NaN,,NaN,0,1,0,NaN,NaN,1,NaN,NaN,trial_right,blueBox.png,greenBox.png,blueBox.png,al2_uncon.png,62,31,NaN,NaN,0.85,0.85,1,1,1,0,Volatile,Volatile,2.538,1.672,1.143,1.555,inexpert
156,1671326427347,18/12/2022 01:20:27,1671326427299,0,18/12/2022 01:20:27,109680,37,task-qrxs,repeat-7g8d#1->-repeat-38fk#1->-repeat-qjz7#1->-repeat-5t6i#1,26007700,BLIND,7679970,NaN,complete,NaN,NaN,computer,Desktop or Laptop,Windows 10,Chrome 108.0.0.0,1280x720,1280x720,End of Day 1,SLS,90,A,Pass,End of Day 1,Pass,NaN,NaN,NaN,Pass,NaN,Pass,NaN,schedule_B,schedule_B,32,16,3,offer,Zone3,response_button_image,621.699999988079,NaN,NaN,blueBox.png,1,1,0,0,NaN,NaN,NaN,NaN,NaN,trial_right,blueBox.png,greenBox.png,blueBox.png,al2_uncon.png,62,31,NaN,NaN,0.85,0.85,1,1,1,0,Volatile,Volatile,2.538,1.672,1.143,1.555,inexpert
157,1671326429343,18/12/2022 01:20:29,1671326429291,0,18/12/2022 01:20:29,109680,37,task-qrxs,repeat-7g8d#1->-repeat-38fk#1->-repeat-qjz7#1->-repeat-5t6i#1,26007700,BLIND,7679970,NaN,complete,NaN,NaN,computer,Desktop or Laptop,Windows 10,Chrome 108.0.0.0,1280x720,1280x720,End of Day 1,SLS,90,A,Pass,End of Day 1,Pass,NaN,NaN,NaN,Pass,NaN,Pass,NaN,schedule_B,schedule_B,32,16,5,feedback_r,Zone7,timelimit_screen,2000.111,NaN,NaN,,NaN,0,1,0,NaN,NaN,1,NaN,NaN,trial_right,blueBox.png,greenBox.png,blueBox.png,al2_uncon.png,62,31,NaN,NaN,0.85,0.85,1,1,1,0,Volatile,Volatile,2.538,1.672,1.143,1.555,inexpert
158,1671326429501,18/12/2022 01:20:29,1671326429441,0,18/12/2022 01:20:29,109680,37,task-qrxs,repeat-7g8d#1->-repeat-38fk#1->-repeat-qjz7#1->-repeat-5t6i#1,26007700,BLIND,7679970,NaN,complete,NaN,NaN,computer,Desktop or Laptop,Windows 10,Chrome 108.0.0.0,1280x720,1280x720,End of Day 1,SLS,90,A,Pass,End of Day 1,Pass,NaN,NaN,NaN,Pass,NaN,Pass,NaN,schedule_B,schedule_B,32,16,6,end,Zone1,timelimit_screen,150.144,NaN,NaN,,NaN,0,1,0,NaN,NaN,1,NaN,NaN,trial_right,blueBox.png,greenBox.png,blueBox.png,al2_uncon.png,62,31,NaN,NaN,0.85,0.85,1,1,1,0,Volatile,Volatile,2.538,1.672,1.143,1.555,inexpert
159,1671326430728,18/12/2022 01:20:30,1671326430663,0,18/12/2022 01:20:30,109680,37,task-qrxs,repeat-7g8d#1->-repeat-38fk#1->-repeat-qjz7#1->-repeat-5t6i#1,26007700,BLIND,7679970,NaN,complete,NaN,NaN,computer,Desktop or Laptop,Windows 10,Chrome 108.0.0.0,1280x720,1280x720,End of Day 1,SLS,90,A,Pass,End of Day 1,Pass,NaN,NaN,NaN,Pass,NaN,Pass,NaN,schedule_B,schedule_B,33,16,1,Screen 1,Zone1,continue_button,1186.29999998212,NaN,NaN,,NaN,0,1,0,NaN,NaN,NaN,NaN,NaN,trial_left,blueBox.png,greenBox.png,blueBox.png,al2_uncon.png,63,32,NaN,NaN,0.85,0.85,1,0,0,0,Volatile,Volatile,2.739,1.13,0.815,1.387,inexpert
160,1671326431717,18/12/2022 01:20:31,1671326431658,0,18/12/2022 01:20:31,109680,37,task-qrxs,repeat-7g8d#1->-repeat-38fk#1->-repeat-qjz7#1->-repeat-5t6i#1,26007700,BLIND,7679970,NaN,complete,NaN,NaN,computer,Desktop or Laptop,Windows 10,Chrome 108.0.0.0,1280x720,1280x720,End of Day 1,SLS,90,A,Pass,End of Day 1,Pass,NaN,NaN,NaN,Pass,NaN,Pass,NaN,schedule_B,schedule_B,33,16,2,individual,Zone4,timelimit_screen,1000.391,NaN,NaN,,NaN,0,1,0,NaN,NaN,1,NaN,NaN,trial_left,blueBox.png,greenBox.png,blueBox.png,al2_uncon.png,63,32,NaN,NaN,0.85,0.85,1,0,0,0,Volatile,Volatile,2.739,1.13,0.815,1.387,inexpert
161,1671326432300,18/12/2022 01:20:32,1671326432253,0,18/12/2022 01:20:32,109680,37,task-qrxs,repeat-7g8d#1->-repeat-38fk#1->-repeat-qjz7#1->-repeat-5t6i#1,26007700,BLIND,7679970,NaN,complete,NaN,NaN,computer,Desktop or Laptop,Windows 10,Chrome 108.0.0.0,1280x720,1280x720,End of Day 1,SLS,90,A,Pass,End of Day 1,Pass,NaN,NaN,NaN,Pass,NaN,Pass,NaN,schedule_B,schedule_B,33,16,3,offer,bluebox,response_button_image,575.800000011921,NaN,NaN,blueBox.png,1,1,0,0,NaN,NaN,NaN,NaN,NaN,trial_left,blueBox.png,greenBox.png,blueBox.png,al2_uncon.png,63,32,NaN,NaN,0.85,0.85,1,0,0,0,Volatile,Volatile,2.739,1.13,0.815,1.387,inexpert
162,1671326434296,18/12/2022 01:20:34,1671326434240,0,18/12/2022 01:20:34,109680,37,task-qrxs,repeat-7g8d#1->-repeat-38fk#1->-repeat-qjz7#1->-repeat-5t6i#1,26007700,BLIND,7679970,NaN,complete,NaN,NaN,computer,Desktop or Laptop,Windows 10,Chrome 108.0.0.0,1280x720,1280x720,End of Day 1,SLS,90,A,Pass,End of Day 1,Pass,NaN,NaN,NaN,Pass,NaN,Pass,NaN,schedule_B,schedule_B,33,16,5,feedback_r,Zone7,timelimit_screen,1999.73199999999,NaN,NaN,,NaN,0,1,0,NaN,NaN,1,NaN,NaN,trial_left,blueBox.png,greenBox.png,blueBox.png,al2_uncon.png,63,32,NaN,NaN,0.85,0.85,1,0,0,0,Volatile,Volatile,2.739,1.13,0.815,1.387,inexpert
163,1671326434455,18/12/2022 01:20:34,1671326434397,0,18/12/2022 01:20:34,109680,37,task-qrxs,repeat-7g8d#1->-repeat-38fk#1->-repeat-qjz7#1->-repeat-5t6i#1,26007700,BLIND,7679970,NaN,complete,NaN,NaN,computer,Desktop or Laptop,Windows 10,Chrome 108.0.0.0,1280x720,1280x720,End of Day 1,SLS,90,A,Pass,End of Day 1,Pass,NaN,NaN,NaN,Pass,NaN,Pass,NaN,schedule_B,schedule_B,33,16,6,end,Zone1,timelimit_screen,149.909000000014,NaN,NaN,,NaN,0,1,0,NaN,NaN,1,NaN,NaN,trial_left,blueBox.png,greenBox.png,blueBox.png,al2_uncon.png,63,32,NaN,NaN,0.85,0.85,1,0,0,0,Volatile,Volatile,2.739,1.13,0.815,1.387,inexpert
164,1671326435319,18/12/2022 01:20:35,1671326435271,0,18/12/2022 01:20:35,109680,37,task-qrxs,repeat-7g8d#1->-repeat-38fk#1->-repeat-qjz7#1->-repeat-5t6i#1,26007700,BLIND,7679970,NaN,complete,NaN,NaN,computer,Desktop or Laptop,Windows 10,Chrome 108.0.0.0,1280x720,1280x720,End of Day 1,SLS,90,A,Pass,End of Day 1,Pass,NaN,NaN,NaN,Pass,NaN,Pass,NaN,schedule_B,schedule_B,34,17,1,Screen 1,Zone1,continue_button,839.800000011921,NaN,NaN,,NaN,0,1,0,NaN,NaN,NaN,NaN,NaN,trial_left,blueBox.png,blueBox.png,greenBox.png,al2_uncon.png,64,33,NaN,NaN,0.85,0.85,1,1,1,1,Volatile,Volatile,3.672,0.828,0.513,2.059,inexpert
