EventIndex,UTCTimestamp,UTCDate,LocalTimestamp,LocalTimezone,LocalDate,ExperimentID,ExperimentVersion,TreeNodeKey,RepeatKey,ScheduleID,ParticipantPublicID,ParticipantPrivateID,ParticipantStartingGroup,ParticipantStatus,ParticipantCompletionCode,ParticipantExternalSessionID,ParticipantDeviceType,ParticipantDevice,ParticipantOS,ParticipantBrowser,ParticipantMonitorSize,ParticipantViewportSize,Checkpoint,TaskName,TaskVersion,randomiser_6z9f,branch_kxy7,checkpoint_tqwf,branch_rtog,branch_7dgx,checkpoint_mqen,branch_yx2c,branch_3n8o,branch_f1s6,branch_x6l7,branch_21hs,Spreadsheet,SpreadsheetName,SpreadsheetRow,TrialNumber,ScreenNumber,ScreenName,ZoneName,ZoneType,ReactionTime,ReactionOnset,ResponseType,Response,Attempt,Correct,Incorrect,Dishonest,XCoordinate,YCoordinate,TimedOut,randomise_blocks,randomise_trials,display,ANSWER,left_button,right_button,advice,orderno,trialno,ShowProgressBar,image,prob_blue_corr,prob_group_corr,corr_ans,group_corr,group_choice,blue_pos,indiv_vol,soc_vol,ITI_1,ITI_2,ITI_3,ITI_4,condition
1,1671315542336,17/12/2022 22:19:02,1671315540244,0,17/12/2022 22:19:00,109680,37,task-rbyw,repeat-u7ds#1->-repeat-l3h2#1,26007080,BLIND,7681389,NaN,complete,NaN,NaN,computer,Desktop or Laptop,Mac OS 10.15.7,Safari 14.1.2,1440x900,1440x820,End of Day 1,SLS,90,B,NaN,NaN,NaN,Pass,End of Day 1,Pass,NaN,Pass,NaN,Pass,schedule_B,,NaN,NaN,NaN,,,,NaN,NaN,NaN,,NaN,0,1,0,NaN,NaN,NaN,NaN,NaN,,,,,,NaN,NaN,NaN,NaN,NaN,NaN,NaN,NaN,NaN,NaN,,,NaN,NaN,NaN,NaN,
2,1671315544004,17/12/2022 22:19:04,1671315541959,0,17/12/2022 22:19:01,109680,37,task-rbyw,repeat-u7ds#1->-repeat-l3h2#1,26007080,BLIND,7681389,NaN,complete,NaN,NaN,computer,Desktop or Laptop,Mac OS 10.15.7,Safari 14.1.2,1440x900,1440x820,End of Day 1,SLS,90,B,NaN,NaN,NaN,Pass,End of Day 1,Pass,NaN,Pass,NaN,Pass,schedule_B,schedule_B,1,1,1,Screen 1,Zone1,continue_button,1348,NaN,NaN,,NaN,0,1,0,NaN,NaN,NaN,NaN,NaN,getReadyb,,,,,1,NaN,NaN,NaN,NaN,NaN,NaN,NaN,NaN,NaN,,,NaN,NaN,NaN,NaN,
3,1671315545494,17/12/2022 22:19:05,1671315543450,0,17/12/2022 22:19:03,109680,37,task-rbyw,repeat-u7ds#1->-repeat-l3h2#1,26007080,BLIND,7681389,NaN,complete,NaN,NaN,computer,Desktop or Laptop,Mac OS 10.15.7,Safari 14.1.2,1440x900,1440x820,End of Day 1,SLS,90,B,NaN,NaN,NaN,Pass,End of Day 1,Pass,NaN,Pass,NaN,Pass,schedule_B,schedule_B,1,1,2,Screen 2,Zone1,continue_button,1485,NaN,NaN,,NaN,0,1,0,NaN,NaN,NaN,NaN,NaN,getReadyb,,,,,1,NaN,NaN,NaN,NaN,NaN,NaN,NaN,NaN,NaN,,,NaN,NaN,NaN,NaN,
4,1671315553772,17/12/2022 22:19:13,1671315551739,0,17/12/2022 22:19:11,109680,37,task-rbyw,repeat-u7ds#1->-repeat-l3h2#1,26007080,BLIND,7681389,NaN,complete,NaN,NaN,computer,Desktop or Laptop,Mac OS 10.15.7,Safari 14.1.2,1440x900,1440x820,End of Day 1,SLS,90,B,NaN,NaN,NaN,Pass,End of Day 1,Pass,NaN,Pass,NaN,Pass,schedule_B,schedule_B,2,1,1,Screen 1,Zone1,continue_button,8266,NaN,NaN,,NaN,0,1,0,NaN,NaN,NaN,NaN,NaN,trial_right,greenBox.png,greenBox.png,blueBox.png,al2_uncon.png,2,1,NaN,NaN,0.85,0.15,0,0,1,0,Stable,Stable,3.471,0.525,1.66,2.529,inexpert
5,1671315554768,17/12/2022 22:19:14,1671315552737,0,17/12/2022 22:19:12,109680,37,task-rbyw,repeat-u7ds#1->-repeat-l3h2#1,26007080,BLIND,7681389,NaN,complete,NaN,NaN,computer,Desktop or Laptop,Mac OS 10.15.7,Safari 14.1.2,1440x900,1440x820,End of Day 1,SLS,90,B,NaN,NaN,NaN,Pass,End of Day 1,Pass,NaN,Pass,NaN,Pass,schedule_B,schedule_B,2,1,2,individual,Zone4,timelimit_screen,1000,NaN,NaN,,NaN,0,1,0,NaN,NaN,1,NaN,NaN,trial_right,greenBox.png,greenBox.png,blueBox.png,al2_uncon.png,2,1,NaN,NaN,0.85,0.15,0,0,1,0,Stable,Stable,3.471,0.525,1.66,2.529,inexpert
6,1671315556080,17/12/2022 22:19:16,1671315554050,0,17/12/2022 22:19:14,109680,37,task-rbyw,repeat-u7ds#1->-repeat-l3h2#1,26007080,BLIND,7681389,NaN,complete,NaN,NaN,computer,Desktop or Laptop,Mac OS 10.15.7,Safari 14.1.2,1440x900,1440x820,End of Day 1,SLS,90,B,NaN,NaN,NaN,Pass,End of Day 1,Pass,NaN,Pass,NaN,Pass,schedule_B,schedule_B,2,1,3,offer,Zone3,response_button_image,1299,NaN,NaN,blueBox.png,1,0,1,0,NaN,NaN,NaN,NaN,NaN,trial_right,greenBox.png,greenBox.png,blueBox.png,al2_uncon.png,2,1,NaN,NaN,0.85,0.15,0,0,1,0,Stable,Stable,3.471,0.525,1.66,2.529,inexpert
7,1671315558066,17/12/2022 22:19:18,1671315556035,0,17/12/2022 22:19:16,109680,37,task-rbyw,repeat-u7ds#1->-repeat-l3h2#1,26007080,BLIND,7681389,NaN,complete,NaN,NaN,computer,Desktop or Laptop,Mac OS 10.15.7,Safari 14.1.2,1440x900,1440x820,End of Day 1,SLS,90,B,NaN,NaN,NaN,Pass,End of Day 1,Pass,NaN,Pass,NaN,Pass,schedule_B,schedule_B,2,1,5,feedback_r,Zone7,timelimit_screen,2000,NaN,NaN,,NaN,0,1,0,NaN,NaN,1,NaN,NaN,trial_right,greenBox.png,greenBox.png,blueBox.png,al2_uncon.png,2,1,NaN,NaN,0.85,0.15,0,0,1,0,Stable,Stable,3.471,0.525,1.66,2.529,inexpert
8,1671315558215,17/12/2022 22:19:18,1671315556186,0,17/12/2022 22:19:16,109680,37,task-rbyw,repeat-u7ds#1->-repeat-l3h2#1,26007080,BLIND,7681389,NaN,complete,NaN,NaN,computer,Desktop or Laptop,Mac OS 10.15.7,Safari 14.1.2,1440x900,1440x820,End of Day 1,SLS,90,B,NaN,NaN,NaN,Pass,End of Day 1,Pass,NaN,Pass,NaN,Pass,schedule_B,schedule_B,2,1,6,end,Zone1,timelimit_screen,151,NaN,NaN,,NaN,0,1,0,NaN,NaN,1,NaN,NaN,trial_right,greenBox.png,greenBox.png,blueBox.png,al2_uncon.png,2,1,NaN,NaN,0.85,0.15,0,0,1,0,Stable,Stable,3.471,0.525,1.66,2.529,inexpert
9,1671315559903,17/12/2022 22:19:19,1671315557876,0,17/12/2022 22:19:17,109680,37,task-rbyw,repeat-u7ds#1->-repeat-l3h2#1,26007080,BLIND,7681389,NaN,complete,NaN,NaN,computer,Desktop or Laptop,Mac OS 10.15.7,Safari 14.1.2,1440x900,1440x820,End of Day 1,SLS,90,B,NaN,NaN,NaN,Pass,End of Day 1,Pass,NaN,Pass,NaN,Pass,schedule_B,schedule_B,3,1,1,Screen 1,Zone1,continue_button,1667,NaN,NaN,,NaN,0,1,0,NaN,NaN,NaN,NaN,NaN,trial_left,blueBox.png,greenBox.png,blueBox.png,al2_uncon.png,3,2,NaN,NaN,0.85,0.15,1,0,0,0,Stable,Stable,1.782,1.168,1.168,2.462,inexpert
10,1671315560902,17/12/2022 22:19:20,1671315558869,0,17/12/2022 22:19:18,109680,37,task-rbyw,repeat-u7ds#1->-repeat-l3h2#1,26007080,BLIND,7681389,NaN,complete,NaN,NaN,computer,Desktop or Laptop,Mac OS 10.15.7,Safari 14.1.2,1440x900,1440x820,End of Day 1,SLS,90,B,NaN,NaN,NaN,Pass,End of Day 1,Pass,NaN,Pass,NaN,Pass,schedule_B,schedule_B,3,1,2,individual,Zone4,timelimit_screen,1000,NaN,NaN,,NaN,0,1,0,NaN,NaN,1,NaN,NaN,trial_left,blueBox.png,greenBox.png,blueBox.png,al2_uncon.png,3,2,NaN,NaN,0.85,0.15,1,0,0,0,Stable,Stable,1.782,1.168,1.168,2.462,inexpert
11,1671315562179,17/12/2022 22:19:22,1671315560145,0,17/12/2022 22:19:20,109680,37,task-rbyw,repeat-u7ds#1->-repeat-l3h2#1,26007080,BLIND,7681389,NaN,complete,NaN,NaN,computer,Desktop or Laptop,Mac OS 10.15.7,Safari 14.1.2,1440x900,1440x820,End of Day 1,SLS,90,B,NaN,NaN,NaN,Pass,End of Day 1,Pass,NaN,Pass,NaN,Pass,schedule_B,schedule_B,3,1,3,offer,bluebox,response_button_image,1263,NaN,NaN,blueBox.png,1,1,0,0,NaN,NaN,NaN,NaN,NaN,trial_left,blueBox.png,greenBox.png,blueBox.png,al2_uncon.png,3,2,NaN,NaN,0.85,0.15,1,0,0,0,Stable,Stable,1.782,1.168,1.168,2.462,inexpert
12,1671315564170,17/12/2022 22:19:24,1671315562136,0,17/12/2022 22:19:22,109680,37,task-rbyw,repeat-u7ds#1->-repeat-l3h2#1,26007080,BLIND,7681389,NaN,complete,NaN,NaN,computer,Desktop or Laptop,Mac OS 10.15.7,Safari 14.1.2,1440x900,1440x820,End of Day 1,SLS,90,B,NaN,NaN,NaN,Pass,End of Day 1,Pass,NaN,Pass,NaN,Pass,schedule_B,schedule_B,3,1,5,feedback_r,Zone7,timelimit_screen,2000,NaN,NaN,,NaN,0,1,0,NaN,NaN,1,NaN,NaN,trial_left,blueBox.png,greenBox.png,blueBox.png,al2_uncon.png,3,2,NaN,NaN,0.85,0.15,1,0,0,0,Stable,Stable,1.782,1.168,1.168,2.462,inexpert
13,1671315564313,17/12/2022 22:19:24,1671315562285,0,17/12/2022 22:19:22,109680,37,task-rbyw,repeat-u7ds#1->-repeat-l3h2#1,26007080,BLIND,7681389,NaN,complete,NaN,NaN,computer,Desktop or Laptop,Mac OS 10.15.7,Safari 14.1.2,1440x900,1440x820,End of Day 1,SLS,90,B,NaN,NaN,NaN,Pass,End of Day 1,Pass,NaN,Pass,NaN,Pass,schedule_B,schedule_B,3,1,6,end,Zone1,timelimit_screen,150,NaN,NaN,,NaN,0,1,0,NaN,NaN,1,NaN,NaN,trial_left,blueBox.png,greenBox.png,blueBox.png,al2_uncon.png,3,2,NaN,NaN,0.85,0.15,1,0,0,0,Stable,Stable,1.782,1.168,1.168,2.462,inexpert
14,1671315565134,17/12/2022 22:19:25,1671315563087,0,17/12/2022 22:19:23,109680,37,task-rbyw,repeat-u7ds#1->-repeat-l3h2#1,26007080,BLIND,7681389,NaN,complete,NaN,NaN,computer,Desktop or Laptop,Mac OS 10.15.7,Safari 14.1.2,1440x900,1440x820,End of Day 1,SLS,90,B,NaN,NaN,NaN,Pass,End of Day 1,Pass,NaN,Pass,NaN,Pass,schedule_B,schedule_B,4,2,1,Screen 1,Zone1,continue_button,778,NaN,NaN,,NaN,0,1,0,NaN,NaN,NaN,NaN,NaN,trial_left,blueBox.png,greenBox.png,blueBox.png,al2_uncon.png,4,3,NaN,NaN,0.85,0.15,1,0,0,0,Stable,Stable,1.983,1.181,0.538,1.588,inexpert
15,1671315566103,17/12/2022 22:19:26,1671315564069,0,17/12/2022 22:19:24,109680,37,task-rbyw,repeat-u7ds#1->-repeat-l3h2#1,26007080,BLIND,7681389,NaN,complete,NaN,NaN,computer,Desktop or Laptop,Mac OS 10.15.7,Safari 14.1.2,1440x900,1440x820,End of Day 1,SLS,90,B,NaN,NaN,NaN,Pass,End of Day 1,Pass,NaN,Pass,NaN,Pass,schedule_B,schedule_B,4,2,2,individual,Zone4,timelimit_screen,1000,NaN,NaN,,NaN,0,1,0,NaN,NaN,1,NaN,NaN,trial_left,blueBox.png,greenBox.png,blueBox.png,al2_uncon.png,4,3,NaN,NaN,0.85,0.15,1,0,0,0,Stable,Stable,1.983,1.181,0.538,1.588,inexpert
16,1671315567242,17/12/2022 22:19:27,1671315565212,0,17/12/2022 22:19:25,109680,37,task-rbyw,repeat-u7ds#1->-repeat-l3h2#1,26007080,BLIND,7681389,NaN,complete,NaN,NaN,computer,Desktop or Laptop,Mac OS 10.15.7,Safari 14.1.2,1440x900,1440x820,End of Day 1,SLS,90,B,NaN,NaN,NaN,Pass,End of Day 1,Pass,NaN,Pass,NaN,Pass,schedule_B,schedule_B,4,2,3,offer,bluebox,response_button_image,1128,NaN,NaN,blueBox.png,1,1,0,0,NaN,NaN,NaN,NaN,NaN,trial_left,blueBox.png,greenBox.png,blueBox.png,al2_uncon.png,4,3,NaN,NaN,0.85,0.15,1,0,0,0,Stable,Stable,1.983,1.181,0.538,1.588,inexpert
17,1671315569232,17/12/2022 22:19:29,1671315567203,0,17/12/2022 22:19:27,109680,37,task-rbyw,repeat-u7ds#1->-repeat-l3h2#1,26007080,BLIND,7681389,NaN,complete,NaN,NaN,computer,Desktop or Laptop,Mac OS 10.15.7,Safari 14.1.2,1440x900,1440x820,End of Day 1,SLS,90,B,NaN,NaN,NaN,Pass,End of Day 1,Pass,NaN,Pass,NaN,Pass,schedule_B,schedule_B,4,2,5,feedback_r,Zone7,timelimit_screen,2000,NaN,NaN,,NaN,0,1,0,NaN,NaN,1,NaN,NaN,trial_left,blueBox.png,greenBox.png,blueBox.png,al2_uncon.png,4,3,NaN,NaN,0.85,0.15,1,0,0,0,Stable,Stable,1.983,1.181,0.538,1.588,inexpert
18,1671315569382,17/12/2022 22:19:29,1671315567352,0,17/12/2022 22:19:27,109680,37,task-rbyw,repeat-u7ds#1->-repeat-l3h2#1,26007080,BLIND,7681389,NaN,complete,NaN,NaN,computer,Desktop or Laptop,Mac OS 10.15.7,Safari 14.1.2,1440x900,1440x820,End of Day 1,SLS,90,B,NaN,NaN,NaN,Pass,End of Day 1,Pass,NaN,Pass,NaN,Pass,schedule_B,schedule_B,4,2,6,end,Zone1,timelimit_screen,151,NaN,NaN,,NaN,0,1,0,NaN,NaN,1,NaN,NaN,trial_left,blueBox.png,greenBox.png,blueBox.png,al2_uncon.png,4,3,NaN,NaN,0.85,0.15,1,0,0,0,Stable,Stable,1.983,1.181,0.538,1.588,inexpert
19,1671315570418,17/12/2022 22:19:30,1671315568389,0,17/12/2022 22:19:28,109680,37,task-rbyw,repeat-u7ds#1->-repeat-l3h2#1,26007080,BLIND,7681389,NaN,complete,NaN,NaN,computer,Desktop or Laptop,Mac OS 10.15.7,Safari 14.1.2,1440x900,1440x820,End of Day 1,SLS,90,B,NaN,NaN,NaN,Pass,End of Day 1,Pass,NaN,Pass,NaN,Pass,schedule_B,schedule_B,5,2,1,Screen 1,Zone1,continue_button,1013,NaN,NaN,,NaN,0,1,0,NaN,NaN,NaN,NaN,NaN,trial_right,greenBox.png,greenBox.png,blueBox.png,al2_uncon.png,5,4,NaN,NaN,0.85,0.15,0,0,1,0,Stable,Stable,1.529,0.891,1.004,1,inexpert
20,1671315571420,17/12/2022 22:19:31,1671315569386,0,17/12/2022 22:19:29,109680,37,task-rbyw,repeat-u7ds#1->-repeat-l3h2#1,26007080,BLIND,7681389,NaN,complete,NaN,NaN,computer,Desktop or Laptop,Mac OS 10.15.7,Safari 14.1.2,1440x900,1440x820,End of Day 1,SLS,90,B,NaN,NaN,NaN,Pass,End of Day 1,Pass,NaN,Pass,NaN,Pass,schedule_B,schedule_B,5,2,2,individual,Zone4,timelimit_screen,1001,NaN,NaN,,NaN,0,1,0,NaN,NaN,1,NaN,NaN,trial_right,greenBox.png,greenBox.png,blueBox.png,al2_uncon.png,5,4,NaN,NaN,0.85,0.15,0,0,1,0,Stable,Stable,1.529,0.891,1.004,1,inexpert
21,1671315572371,17/12/2022 22:19:32,1671315570350,0,17/12/2022 22:19:30,109680,37,task-rbyw,repeat-u7ds#1->-repeat-l3h2#1,26007080,BLIND,7681389,NaN,complete,NaN,NaN,computer,Desktop or Laptop,Mac OS 10.15.7,Safari 14.1.2,1440x900,1440x820,End of Day 1,SLS,90,B,NaN,NaN,NaN,Pass,End of Day 1,Pass,NaN,Pass,NaN,Pass,schedule_B,schedule_B,5,2,3,offer,Zone2,response_button_image,950,NaN,NaN,greenBox.png,1,1,0,0,NaN,NaN,NaN,NaN,NaN,trial_right,greenBox.png,greenBox.png,blueBox.png,al2_uncon.png,5,4,NaN,NaN,0.85,0.15,0,0,1,0,Stable,Stable,1.529,0.891,1.004,1,inexpert
22,1671315574364,17/12/2022 22:19:34,1671315572336,0,17/12/2022 22:19:32,109680,37,task-rbyw,repeat-u7ds#1->-repeat-l3h2#1,26007080,BLIND,7681389,NaN,complete,NaN,NaN,computer,Desktop or Laptop,Mac OS 10.15.7,Safari 14.1.2,1440x900,1440x820,End of Day 1,SLS,90,B,NaN,NaN,NaN,Pass,End of Day 1,Pass,NaN,Pass,NaN,Pass,schedule_B,schedule_B,5,2,4,feedback_l,Zone7,timelimit_screen,2000,NaN,NaN,,NaN,0,1,0,NaN,NaN,1,NaN,NaN,trial_right,greenBox.png,greenBox.png,blueBox.png,al2_uncon.png,5,4,NaN,NaN,0.85,0.15,0,0,1,0,Stable,Stable,1.529,0.891,1.004,1,inexpert
23,1671315574516,17/12/2022 22:19:34,1671315572485,0,17/12/2022 22:19:32,109680,37,task-rbyw,repeat-u7ds#1->-repeat-l3h2#1,26007080,BLIND,7681389,NaN,complete,NaN,NaN,computer,Desktop or Laptop,Mac OS 10.15.7,Safari 14.1.2,1440x900,1440x820,End of Day 1,SLS,90,B,NaN,NaN,NaN,Pass,End of Day 1,Pass,NaN,Pass,NaN,Pass,schedule_B,schedule_B,5,2,6,end,Zone1,timelimit_screen,150,NaN,NaN,,NaN,0,1,0,NaN,NaN,1,NaN,NaN,trial_right,greenBox.png,greenBox.png,blueBox.png,al2_uncon.png,5,4,NaN,NaN,0.85,0.15,0,0,1,0,Stable,Stable,1.529,0.891,1.004,1,inexpert
24,1671315576182,17/12/2022 22:19:36,1671315574158,0,17/12/2022 22:19:34,109680,37,task-rbyw,repeat-u7ds#1->-repeat-l3h2#1,26007080,BLIND,7681389,NaN,complete,NaN,NaN,computer,Desktop or Laptop,Mac OS 10.15.7,Safari 14.1.2,1440x900,1440x820,End of Day 1,SLS,90,B,NaN,NaN,NaN,Pass,End of Day 1,Pass,NaN,Pass,NaN,Pass,schedule_B,schedule_B,6,3,1,Screen 1,Zone1,continue_button,1658,NaN,NaN,,NaN,0,1,0,NaN,NaN,NaN,NaN,NaN,trial_left,blueBox.png,greenBox.png,blueBox.png,al2_uncon.png,6,5,NaN,NaN,0.85,0.15,1,0,0,0,Stable,Stable,1.832,1.118,0.752,1.79,inexpert
25,1671315577182,17/12/2022 22:19:37,1671315575153,0,17/12/2022 22:19:35,109680,37,task-rbyw,repeat-u7ds#1->-repeat-l3h2#1,26007080,BLIND,7681389,NaN,complete,NaN,NaN,computer,Desktop or Laptop,Mac OS 10.15.7,Safari 14.1.2,1440x900,1440x820,End of Day 1,SLS,90,B,NaN,NaN,NaN,Pass,End of Day 1,Pass,NaN,Pass,NaN,Pass,schedule_B,schedule_B,6,3,2,individual,Zone4,timelimit_screen,1000,NaN,NaN,,NaN,0,1,0,NaN,NaN,1,NaN,NaN,trial_left,blueBox.png,greenBox.png,blueBox.png,al2_uncon.png,6,5,NaN,NaN,0.85,0.15,1,0,0,0,Stable,Stable,1.832,1.118,0.752,1.79,inexpert
26,1671315578071,17/12/2022 22:19:38,1671315576036,0,17/12/2022 22:19:36,109680,37,task-rbyw,repeat-u7ds#1->-repeat-l3h2#1,26007080,BLIND,7681389,NaN,complete,NaN,NaN,computer,Desktop or Laptop,Mac OS 10.15.7,Safari 14.1.2,1440x900,1440x820,End of Day 1,SLS,90,B,NaN,NaN,NaN,Pass,End of Day 1,Pass,NaN,Pass,NaN,Pass,schedule_B,schedule_B,6,3,3,offer,bluebox,response_button_image,870,NaN,NaN,blueBox.png,1,1,0,0,NaN,NaN,NaN,NaN,NaN,trial_left,blueBox.png,greenBox.png,blueBox.png,al2_uncon.png,6,5,NaN,NaN,0.85,0.15,1,0,0,0,Stable,Stable,1.832,1.118,0.752,1.79,inexpert
27,1671315580064,17/12/2022 22:19:40,1671315578036,0,17/12/2022 22:19:38,109680,37,task-rbyw,repeat-u7ds#1->-repeat-l3h2#1,26007080,BLIND,7681389,NaN,complete,NaN,NaN,computer,Desktop or Laptop,Mac OS 10.15.7,Safari 14.1.2,1440x900,1440x820,End of Day 1,SLS,90,B,NaN,NaN,NaN,Pass,End of Day 1,Pass,NaN,Pass,NaN,Pass,schedule_B,schedule_B,6,3,5,feedback_r,Zone7,timelimit_screen,2000,NaN,NaN,,NaN,0,1,0,NaN,NaN,1,NaN,NaN,trial_left,blueBox.png,greenBox.png,blueBox.png,al2_uncon.png,6,5,NaN,NaN,0.85,0.15,1,0,0,0,Stable,Stable,1.832,1.118,0.752,1.79,inexpert
28,1671315580222,17/12/2022 22:19:40,1671315578186,0,17/12/2022 22:19:38,109680,37,task-rbyw,repeat-u7ds#1->-repeat-l3h2#1,26007080,BLIND,7681389,NaN,complete,NaN,NaN,computer,Desktop or Laptop,Mac OS 10.15.7,Safari 14.1.2,1440x900,1440x820,End of Day 1,SLS,90,B,NaN,NaN,NaN,Pass,End of Day 1,Pass,NaN,Pass,NaN,Pass,schedule_B,schedule_B,6,3,6,end,Zone1,timelimit_screen,150,NaN,NaN,,NaN,0,1,0,NaN,NaN,1,NaN,NaN,trial_left,blueBox.png,greenBox.png,blueBox.png,al2_uncon.png,6,5,NaN,NaN,0.85,0.15,1,0,0,0,Stable,Stable,1.832,1.118,0.752,1.79,inexpert
29,1671315581179,17/12/2022 22:19:41,1671315579102,0,17/12/2022 22:19:39,109680,37,task-rbyw,repeat-u7ds#1->-repeat-l3h2#1,26007080,BLIND,7681389,NaN,complete,NaN,NaN,computer,Desktop or Laptop,Mac OS 10.15.7,Safari 14.1.2,1440x900,1440x820,End of Day 1,SLS,90,B,NaN,NaN,NaN,Pass,End of Day 1,Pass,NaN,Pass,NaN,Pass,schedule_B,schedule_B,7,3,1,Screen 1,Zone1,continue_button,894,NaN,NaN,,NaN,0,1,0,NaN,NaN,NaN,NaN,NaN,trial_right,greenBox.png,greenBox.png,blueBox.png,al2_uncon.png,7,6,NaN,NaN,0.15,0.15,0,0,1,0,Stable,Stable,3.294,0.815,1.282,2.664,inexpert
30,1671315582118,17/12/2022 22:19:42,1671315580086,0,17/12/2022 22:19:40,109680,37,task-rbyw,repeat-u7ds#1->-repeat-l3h2#1,26007080,BLIND,7681389,NaN,complete,NaN,NaN,computer,Desktop or Laptop,Mac OS 10.15.7,Safari 14.1.2,1440x900,1440x820,End of Day 1,SLS,90,B,NaN,NaN,NaN,Pass,End of Day 1,Pass,NaN,Pass,NaN,Pass,schedule_B,schedule_B,7,3,2,individual,Zone4,timelimit_screen,1000,NaN,NaN,,NaN,0,1,0,NaN,NaN,1,NaN,NaN,trial_right,greenBox.png,greenBox.png,blueBox.png,al2_uncon.png,7,6,NaN,NaN,0.15,0.15,0,0,1,0,Stable,Stable,3.294,0.815,1.282,2.664,inexpert
31,1671315583448,17/12/2022 22:19:43,1671315581420,0,17/12/2022 22:19:41,109680,37,task-rbyw,repeat-u7ds#1->-repeat-l3h2#1,26007080,BLIND,7681389,NaN,complete,NaN,NaN,computer,Desktop or Laptop,Mac OS 10.15.7,Safari 14.1.2,1440x900,1440x820,End of Day 1,SLS,90,B,NaN,NaN,NaN,Pass,End of Day 1,Pass,NaN,Pass,NaN,Pass,schedule_B,schedule_B,7,3,3,offer,Zone2,response_button_image,1320,NaN,NaN,greenBox.png,1,1,0,0,NaN,NaN,NaN,NaN,NaN,trial_right,greenBox.png,greenBox.png,blueBox.png,al2_uncon.png,7,6,NaN,NaN,0.15,0.15,0,0,1,0,Stable,Stable,3.294,0.815,1.282,2.664,inexpert
32,1671315585434,17/12/2022 22:19:45,1671315583403,0,17/12/2022 22:19:43,109680,37,task-rbyw,repeat-u7ds#1->-repeat-l3h2#1,26007080,BLIND,7681389,NaN,complete,NaN,NaN,computer,Desktop or Laptop,Mac OS 10.15.7,Safari 14.1.2,1440x900,1440x820,End of Day 1,SLS,90,B,NaN,NaN,NaN,Pass,End of Day 1,Pass,NaN,Pass,NaN,Pass,schedule_B,schedule_B,7,3,4,feedback_l,Zone7,timelimit_screen,2000,NaN,NaN,,NaN,0,1,0,NaN,NaN,1,NaN,NaN,trial_right,greenBox.png,greenBox.png,blueBox.png,al2_uncon.png,7,6,NaN,NaN,0.15,0.15,0,0,1,0,Stable,Stable,3.294,0.815,1.282,2.664,inexpert
33,1671315585582,17/12/2022 22:19:45,1671315583552,0,17/12/2022 22:19:43,109680,37,task-rbyw,repeat-u7ds#1->-repeat-l3h2#1,26007080,BLIND,7681389,NaN,complete,NaN,NaN,computer,Desktop or Laptop,Mac OS 10.15.7,Safari 14.1.2,1440x900,1440x820,End of Day 1,SLS,90,B,NaN,NaN,NaN,Pass,End of Day 1,Pass,NaN,Pass,NaN,Pass,schedule_B,schedule_B,7,3,6,end,Zone1,timelimit_screen,150,NaN,NaN,,NaN,0,1,0,NaN,NaN,1,NaN,NaN,trial_right,greenBox.png,greenBox.png,blueBox.png,al2_uncon.png,7,6,NaN,NaN,0.15,0.15,0,0,1,0,Stable,Stable,3.294,0.815,1.282,2.664,inexpert
34,1671315586345,17/12/2022 22:19:46,1671315584313,0,17/12/2022 22:19:44,109680,37,task-rbyw,repeat-u7ds#1->-repeat-l3h2#1,26007080,BLIND,7681389,NaN,complete,NaN,NaN,computer,Desktop or Laptop,Mac OS 10.15.7,Safari 14.1.2,1440x900,1440x820,End of Day 1,SLS,90,B,NaN,NaN,NaN,Pass,End of Day 1,Pass,NaN,Pass,NaN,Pass,schedule_B,schedule_B,8,4,1,Screen 1,Zone1,continue_button,742,NaN,NaN,,NaN,0,1,0,NaN,NaN,NaN,NaN,NaN,trial_left,greenBox.png,blueBox.png,greenBox.png,al2_uncon.png,8,7,NaN,NaN,0.15,0.15,0,0,1,1,Stable,Stable,3.269,1.37,1.786,2.328,inexpert
35,1671315587329,17/12/2022 22:19:47,1671315585302,0,17/12/2022 22:19:45,109680,37,task-rbyw,repeat-u7ds#1->-repeat-l3h2#1,26007080,BLIND,7681389,NaN,complete,NaN,NaN,computer,Desktop or Laptop,Mac OS 10.15.7,Safari 14.1.2,1440x900,1440x820,End of Day 1,SLS,90,B,NaN,NaN,NaN,Pass,End of Day 1,Pass,NaN,Pass,NaN,Pass,schedule_B,schedule_B,8,4,2,individual,Zone4,timelimit_screen,999,NaN,NaN,,NaN,0,1,0,NaN,NaN,1,NaN,NaN,trial_left,greenBox.png,blueBox.png,greenBox.png,al2_uncon.png,8,7,NaN,NaN,0.15,0.15,0,0,1,1,Stable,Stable,3.269,1.37,1.786,2.328,inexpert
36,1671315588274,17/12/2022 22:19:48,1671315586233,0,17/12/2022 22:19:46,109680,37,task-rbyw,repeat-u7ds#1->-repeat-l3h2#1,26007080,BLIND,7681389,NaN,complete,NaN,NaN,computer,Desktop or Laptop,Mac OS 10.15.7,Safari 14.1.2,1440x900,1440x820,End of Day 1,SLS,90,B,NaN,NaN,NaN,Pass,End of Day 1,Pass,NaN,Pass,NaN,Pass,schedule_B,schedule_B,8,4,3,offer,bluebox,response_button_image,919.999999999993,NaN,NaN,greenBox.png,1,1,0,0,NaN,NaN,NaN,NaN,NaN,trial_left,greenBox.png,blueBox.png,greenBox.png,al2_uncon.png,8,7,NaN,NaN,0.15,0.15,0,0,1,1,Stable,Stable,3.269,1.37,1.786,2.328,inexpert
37,1671315590243,17/12/2022 22:19:50,1671315588220,0,17/12/2022 22:19:48,109680,37,task-rbyw,repeat-u7ds#1->-repeat-l3h2#1,26007080,BLIND,7681389,NaN,complete,NaN,NaN,computer,Desktop or Laptop,Mac OS 10.15.7,Safari 14.1.2,1440x900,1440x820,End of Day 1,SLS,90,B,NaN,NaN,NaN,Pass,End of Day 1,Pass,NaN,Pass,NaN,Pass,schedule_B,schedule_B,8,4,5,feedback_r,Zone7,timelimit_screen,2000,NaN,NaN,,NaN,0,1,0,NaN,NaN,1,NaN,NaN,trial_left,greenBox.png,blueBox.png,greenBox.png,al2_uncon.png,8,7,NaN,NaN,0.15,0.15,0,0,1,1,Stable,Stable,3.269,1.37,1.786,2.328,inexpert
38,1671315590395,17/12/2022 22:19:50,1671315588369,0,17/12/2022 22:19:48,109680,37,task-rbyw,repeat-u7ds#1->-repeat-l3h2#1,26007080,BLIND,7681389,NaN,complete,NaN,NaN,computer,Desktop or Laptop,Mac OS 10.15.7,Safari 14.1.2,1440x900,1440x820,End of Day 1,SLS,90,B,NaN,NaN,NaN,Pass,End of Day 1,Pass,NaN,Pass,NaN,Pass,schedule_B,schedule_B,8,4,6,end,Zone1,timelimit_screen,150,NaN,NaN,,NaN,0,1,0,NaN,NaN,1,NaN,NaN,trial_left,greenBox.png,blueBox.png,greenBox.png,al2_uncon.png,8,7,NaN,NaN,0.15,0.15,0,0,1,1,Stable,Stable,3.269,1.37,1.786,2.328,inexpert
39,1671315591277,17/12/2022 22:19:51,1671315589249,0,17/12/2022 22:19:49,109680,37,task-rbyw,repeat-u7ds#1->-repeat-l3h2#1,26007080,BLIND,7681389,NaN,complete,NaN,NaN,computer,Desktop or Laptop,Mac OS 10.15.7,Safari 14.1.2,1440x900,1440x820,End of Day 1,SLS,90,B,NaN,NaN,NaN,Pass,End of Day 1,Pass,NaN,Pass,NaN,Pass,schedule_B,schedule_B,9,4,1,Screen 1,Zone1,continue_button,854,NaN,NaN,,NaN,0,1,0,NaN,NaN,NaN,NaN,NaN,trial_right,blueBox.png,blueBox.png,greenBox.png,al2_uncon.png,9,8,NaN,NaN,0.15,0.15,1,0,0,1,Stable,Stable,3.975,0.576,1.256,1.807,inexpert
40,1671315592259,17/12/2022 22:19:52,1671315590236,0,17/12/2022 22:19:50,109680,37,task-rbyw,repeat-u7ds#1->-repeat-l3h2#1,26007080,BLIND,7681389,NaN,complete,NaN,NaN,computer,Desktop or Laptop,Mac OS 10.15.7,Safari 14.1.2,1440x900,1440x820,End of Day 1,SLS,90,B,NaN,NaN,NaN,Pass,End of Day 1,Pass,NaN,Pass,NaN,Pass,schedule_B,schedule_B,9,4,2,individual,Zone4,timelimit_screen,1000,NaN,NaN,,NaN,0,1,0,NaN,NaN,1,NaN,NaN,trial_right,blueBox.png,blueBox.png,greenBox.png,al2_uncon.png,9,8,NaN,NaN,0.15,0.15,1,0,0,1,Stable,Stable,3.975,0.576,1.256,1.807,inexpert
41,1671315593495,17/12/2022 22:19:53,1671315591478,0,17/12/2022 22:19:51,109680,37,task-rbyw,repeat-u7ds#1->-repeat-l3h2#1,26007080,BLIND,7681389,NaN,complete,NaN,NaN,computer,Desktop or Laptop,Mac OS 10.15.7,Safari 14.1.2,1440x900,1440x820,End of Day 1,SLS,90,B,NaN,NaN,NaN,Pass,End of Day 1,Pass,NaN,Pass,NaN,Pass,schedule_B,schedule_B,9,4,3,offer,Zone2,response_button_image,1227,NaN,NaN,blueBox.png,1,1,0,0,NaN,NaN,NaN,NaN,NaN,trial_right,blueBox.png,blueBox.png,greenBox.png,al2_uncon.png,9,8,NaN,NaN,0.15,0.15,1,0,0,1,Stable,Stable,3.975,0.576,1.256,1.807,inexpert
42,1671315595498,17/12/2022 22:19:55,1671315593469,0,17/12/2022 22:19:53,109680,37,task-rbyw,repeat-u7ds#1->-repeat-l3h2#1,26007080,BLIND,7681389,NaN,complete,NaN,NaN,computer,Desktop or Laptop,Mac OS 10.15.7,Safari 14.1.2,1440x900,1440x820,End of Day 1,SLS,90,B,NaN,NaN,NaN,Pass,End of Day 1,Pass,NaN,Pass,NaN,Pass,schedule_B,schedule_B,9,4,4,feedback_l,Zone7,timelimit_screen,2000,NaN,NaN,,NaN,0,1,0,NaN,NaN,1,NaN,NaN,trial_right,blueBox.png,blueBox.png,greenBox.png,al2_uncon.png,9,8,NaN,NaN,0.15,0.15,1,0,0,1,Stable,Stable,3.975,0.576,1.256,1.807,inexpert
43,1671315595650,17/12/2022 22:19:55,1671315593619,0,17/12/2022 22:19:53,109680,37,task-rbyw,repeat-u7ds#1->-repeat-l3h2#1,26007080,BLIND,7681389,NaN,complete,NaN,NaN,computer,Desktop or Laptop,Mac OS 10.15.7,Safari 14.1.2,1440x900,1440x820,End of Day 1,SLS,90,B,NaN,NaN,NaN,Pass,End of Day 1,Pass,NaN,Pass,NaN,Pass,schedule_B,schedule_B,9,4,6,end,Zone1,timelimit_screen,150,NaN,NaN,,NaN,0,1,0,NaN,NaN,1,NaN,NaN,trial_right,blueBox.png,blueBox.png,greenBox.png,al2_uncon.png,9,8,NaN,NaN,0.15,0.15,1,0,0,1,Stable,Stable,3.975,0.576,1.256,1.807,inexpert
44,1671315596483,17/12/2022 22:19:56,1671315594452,0,17/12/2022 22:19:54,109680,37,task-rbyw,repeat-u7ds#1->-repeat-l3h2#1,26007080,BLIND,7681389,NaN,complete,NaN,NaN,computer,Desktop or Laptop,Mac OS 10.15.7,Safari 14.1.2,1440x900,1440x820,End of Day 1,SLS,90,B,NaN,NaN,NaN,Pass,End of Day 1,Pass,NaN,Pass,NaN,Pass,schedule_B,schedule_B,10,5,1,Screen 1,Zone1,continue_button,810,NaN,NaN,,NaN,0,1,0,NaN,NaN,NaN,NaN,NaN,trial_left,greenBox.png,blueBox.png,greenBox.png,al2_uncon.png,10,9,NaN,NaN,0.15,0.15,0,0,1,1,Stable,Stable,3.798,1.055,1.559,2.042,inexpert
45,1671315597469,17/12/2022 22:19:57,1671315595436,0,17/12/2022 22:19:55,109680,37,task-rbyw,repeat-u7ds#1->-repeat-l3h2#1,26007080,BLIND,7681389,NaN,complete,NaN,NaN,computer,Desktop or Laptop,Mac OS 10.15.7,Safari 14.1.2,1440x900,1440x820,End of Day 1,SLS,90,B,NaN,NaN,NaN,Pass,End of Day 1,Pass,NaN,Pass,NaN,Pass,schedule_B,schedule_B,10,5,2,individual,Zone4,timelimit_screen,1000,NaN,NaN,,NaN,0,1,0,NaN,NaN,1,NaN,NaN,trial_left,greenBox.png,blueBox.png,greenBox.png,al2_uncon.png,10,9,NaN,NaN,0.15,0.15,0,0,1,1,Stable,Stable,3.798,1.055,1.559,2.042,inexpert
46,1671315598256,17/12/2022 22:19:58,1671315596227,0,17/12/2022 22:19:56,109680,37,task-rbyw,repeat-u7ds#1->-repeat-l3h2#1,26007080,BLIND,7681389,NaN,complete,NaN,NaN,computer,Desktop or Laptop,Mac OS 10.15.7,Safari 14.1.2,1440x900,1440x820,End of Day 1,SLS,90,B,NaN,NaN,NaN,Pass,End of Day 1,Pass,NaN,Pass,NaN,Pass,schedule_B,schedule_B,10,5,3,offer,bluebox,response_button_image,777,NaN,NaN,greenBox.png,1,1,0,0,NaN,NaN,NaN,NaN,NaN,trial_left,greenBox.png,blueBox.png,greenBox.png,al2_uncon.png,10,9,NaN,NaN,0.15,0.15,0,0,1,1,Stable,Stable,3.798,1.055,1.559,2.042,inexpert
47,1671315600260,17/12/2022 22:20:00,1671315598218,0,17/12/2022 22:19:58,109680,37,task-rbyw,repeat-u7ds#1->-repeat-l3h2#1,26007080,BLIND,7681389,NaN,complete,NaN,NaN,computer,Desktop or Laptop,Mac OS 10.15.7,Safari 14.1.2,1440x900,1440x820,End of Day 1,SLS,90,B,NaN,NaN,NaN,Pass,End of Day 1,Pass,NaN,Pass,NaN,Pass,schedule_B,schedule_B,10,5,5,feedback_r,Zone7,timelimit_screen,2000,NaN,NaN,,NaN,0,1,0,NaN,NaN,1,NaN,NaN,trial_left,greenBox.png,blueBox.png,greenBox.png,al2_uncon.png,10,9,NaN,NaN,0.15,0.15,0,0,1,1,Stable,Stable,3.798,1.055,1.559,2.042,inexpert
48,1671315600419,17/12/2022 22:20:00,1671315598369,0,17/12/2022 22:19:58,109680,37,task-rbyw,repeat-u7ds#1->-repeat-l3h2#1,26007080,BLIND,7681389,NaN,complete,NaN,NaN,computer,Desktop or Laptop,Mac OS 10.15.7,Safari 14.1.2,1440x900,1440x820,End of Day 1,SLS,90,B,NaN,NaN,NaN,Pass,End of Day 1,Pass,NaN,Pass,NaN,Pass,schedule_B,schedule_B,10,5,6,end,Zone1,timelimit_screen,150,NaN,NaN,,NaN,0,1,0,NaN,NaN,1,NaN,NaN,trial_left,greenBox.png,blueBox.png,greenBox.png,al2_uncon.png,10,9,NaN,NaN,0.15,0.15,0,0,1,1,Stable,Stable,3.798,1.055,1.559,2.042,inexpert
49,1671315601367,17/12/2022 22:20:01,1671315599342,0,17/12/2022 22:19:59,109680,37,task-rbyw,repeat-u7ds#1->-repeat-l3h2#1,26007080,BLIND,7681389,NaN,complete,NaN,NaN,computer,Desktop or Laptop,Mac OS 10.15.7,Safari 14.1.2,1440x900,1440x820,End of Day 1,SLS,90,B,NaN,NaN,NaN,Pass,End of Day 1,Pass,NaN,Pass,NaN,Pass,schedule_B,schedule_B,11,5,1,Screen 1,Zone1,continue_button,950,NaN,NaN,,NaN,0,1,0,NaN,NaN,NaN,NaN,NaN,trial_right,greenBox.png,greenBox.png,blueBox.png,al2_uncon.png,21,10,NaN,NaN,0.15,0.15,0,0,1,0,Stable,Stable,1.857,0.5,1.294,2.916,inexpert
50,1671315602373,17/12/2022 22:20:02,1671315600337,0,17/12/2022 22:20:00,109680,37,task-rbyw,repeat-u7ds#1->-repeat-l3h2#1,26007080,BLIND,7681389,NaN,complete,NaN,NaN,computer,Desktop or Laptop,Mac OS 10.15.7,Safari 14.1.2,1440x900,1440x820,End of Day 1,SLS,90,B,NaN,NaN,NaN,Pass,End of Day 1,Pass,NaN,Pass,NaN,Pass,schedule_B,schedule_B,11,5,2,individual,Zone4,timelimit_screen,1000,NaN,NaN,,NaN,0,1,0,NaN,NaN,1,NaN,NaN,trial_right,greenBox.png,greenBox.png,blueBox.png,al2_uncon.png,21,10,NaN,NaN,0.15,0.15,0,0,1,0,Stable,Stable,1.857,0.5,1.294,2.916,inexpert
51,1671315603146,17/12/2022 22:20:03,1671315601116,0,17/12/2022 22:20:01,109680,37,task-rbyw,repeat-u7ds#1->-repeat-l3h2#1,26007080,BLIND,7681389,NaN,complete,NaN,NaN,computer,Desktop or Laptop,Mac OS 10.15.7,Safari 14.1.2,1440x900,1440x820,End of Day 1,SLS,90,B,NaN,NaN,NaN,Pass,End of Day 1,Pass,NaN,Pass,NaN,Pass,schedule_B,schedule_B,11,5,3,offer,Zone2,response_button_image,767,NaN,NaN,greenBox.png,1,1,0,0,NaN,NaN,NaN,NaN,NaN,trial_right,greenBox.png,greenBox.png,blueBox.png,al2_uncon.png,21,10,NaN,NaN,0.15,0.15,0,0,1,0,Stable,Stable,1.857,0.5,1.294,2.916,inexpert
52,1671315605142,17/12/2022 22:20:05,1671315603103,0,17/12/2022 22:20:03,109680,37,task-rbyw,repeat-u7ds#1->-repeat-l3h2#1,26007080,BLIND,7681389,NaN,complete,NaN,NaN,computer,Desktop or Laptop,Mac OS 10.15.7,Safari 14.1.2,1440x900,1440x820,End of Day 1,SLS,90,B,NaN,NaN,NaN,Pass,End of Day 1,Pass,NaN,Pass,NaN,Pass,schedule_B,schedule_B,11,5,4,feedback_l,Zone7,timelimit_screen,2000,NaN,NaN,,NaN,0,1,0,NaN,NaN,1,NaN,NaN,trial_right,greenBox.png,greenBox.png,blueBox.png,al2_uncon.png,21,10,NaN,NaN,0.15,0.15,0,0,1,0,Stable,Stable,1.857,0.5,1.294,2.916,inexpert
53,1671315605272,17/12/2022 22:20:05,1671315603253,0,17/12/2022 22:20:03,109680,37,task-rbyw,repeat-u7ds#1->-repeat-l3h2#1,26007080,BLIND,7681389,NaN,complete,NaN,NaN,computer,Desktop or Laptop,Mac OS 10.15.7,Safari 14.1.2,1440x900,1440x820,End of Day 1,SLS,90,B,NaN,NaN,NaN,Pass,End of Day 1,Pass,NaN,Pass,NaN,Pass,schedule_B,schedule_B,11,5,6,end,Zone1,timelimit_screen,150,NaN,NaN,,NaN,0,1,0,NaN,NaN,1,NaN,NaN,trial_right,greenBox.png,greenBox.png,blueBox.png,al2_uncon.png,21,10,NaN,NaN,0.15,0.15,0,0,1,0,Stable,Stable,1.857,0.5,1.294,2.916,inexpert
54,1671315605805,17/12/2022 22:20:05,1671315603775,0,17/12/2022 22:20:03,109680,37,task-rbyw,repeat-u7ds#1->-repeat-l3h2#1,26007080,BLIND,7681389,NaN,complete,NaN,NaN,computer,Desktop or Laptop,Mac OS 10.15.7,Safari 14.1.2,1440x900,1440x820,End of Day 1,SLS,90,B,NaN,NaN,NaN,Pass,End of Day 1,Pass,NaN,Pass,NaN,Pass,schedule_B,schedule_B,12,6,1,Screen 1,Zone1,continue_button,497,NaN,NaN,,NaN,0,1,0,NaN,NaN,NaN,NaN,NaN,trial_left,blueBox.png,greenBox.png,blueBox.png,al2_uncon.png,22,11,NaN,NaN,0.85,0.15,1,0,0,0,Stable,Stable,1.126,1.849,1.483,1.689,inexpert
55,1671315606801,17/12/2022 22:20:06,1671315604769,0,17/12/2022 22:20:04,109680,37,task-rbyw,repeat-u7ds#1->-repeat-l3h2#1,26007080,BLIND,7681389,NaN,complete,NaN,NaN,computer,Desktop or Laptop,Mac OS 10.15.7,Safari 14.1.2,1440x900,1440x820,End of Day 1,SLS,90,B,NaN,NaN,NaN,Pass,End of Day 1,Pass,NaN,Pass,NaN,Pass,schedule_B,schedule_B,12,6,2,individual,Zone4,timelimit_screen,1000,NaN,NaN,,NaN,0,1,0,NaN,NaN,1,NaN,NaN,trial_left,blueBox.png,greenBox.png,blueBox.png,al2_uncon.png,22,11,NaN,NaN,0.85,0.15,1,0,0,0,Stable,Stable,1.126,1.849,1.483,1.689,inexpert
56,1671315607551,17/12/2022 22:20:07,1671315605517,0,17/12/2022 22:20:05,109680,37,task-rbyw,repeat-u7ds#1->-repeat-l3h2#1,26007080,BLIND,7681389,NaN,complete,NaN,NaN,computer,Desktop or Laptop,Mac OS 10.15.7,Safari 14.1.2,1440x900,1440x820,End of Day 1,SLS,90,B,NaN,NaN,NaN,Pass,End of Day 1,Pass,NaN,Pass,NaN,Pass,schedule_B,schedule_B,12,6,3,offer,bluebox,response_button_image,733,NaN,NaN,blueBox.png,1,1,0,0,NaN,NaN,NaN,NaN,NaN,trial_left,blueBox.png,greenBox.png,blueBox.png,al2_uncon.png,22,11,NaN,NaN,0.85,0.15,1,0,0,0,Stable,Stable,1.126,1.849,1.483,1.689,inexpert
57,1671315609526,17/12/2022 22:20:09,1671315607503,0,17/12/2022 22:20:07,109680,37,task-rbyw,repeat-u7ds#1->-repeat-l3h2#1,26007080,BLIND,7681389,NaN,complete,NaN,NaN,computer,Desktop or Laptop,Mac OS 10.15.7,Safari 14.1.2,1440x900,1440x820,End of Day 1,SLS,90,B,NaN,NaN,NaN,Pass,End of Day 1,Pass,NaN,Pass,NaN,Pass,schedule_B,schedule_B,12,6,5,feedback_r,Zone7,timelimit_screen,2000,NaN,NaN,,NaN,0,1,0,NaN,NaN,1,NaN,NaN,trial_left,blueBox.png,greenBox.png,blueBox.png,al2_uncon.png,22,11,NaN,NaN,0.85,0.15,1,0,0,0,Stable,Stable,1.126,1.849,1.483,1.689,inexpert
58,1671315609685,17/12/2022 22:20:09,1671315607653,0,17/12/2022 22:20:07,109680,37,task-rbyw,repeat-u7ds#1->-repeat-l3h2#1,26007080,BLIND,7681389,NaN,complete,NaN,NaN,computer,Desktop or Laptop,Mac OS 10.15.7,Safari 14.1.2,1440x900,1440x820,End of Day 1,SLS,90,B,NaN,NaN,NaN,Pass,End of Day 1,Pass,NaN,Pass,NaN,Pass,schedule_B,schedule_B,12,6,6,end,Zone1,timelimit_screen,150,NaN,NaN,,NaN,0,1,0,NaN,NaN,1,NaN,NaN,trial_left,blueBox.png,greenBox.png,blueBox.png,al2_uncon.png,22,11,NaN,NaN,0.85,0.15,1,0,0,0,Stable,Stable,1.126,1.849,1.483,1.689,inexpert
59,1671315610203,17/12/2022 22:20:10,1671315608174,0,17/12/2022 22:20:08,109680,37,task-rbyw,repeat-u7ds#1->-repeat-l3h2#1,26007080,BLIND,7681389,NaN,complete,NaN,NaN,computer,Desktop or Laptop,Mac OS 10.15.7,Safari 14.1.2,1440x900,1440x820,End of Day 1,SLS,90,B,NaN,NaN,NaN,Pass,End of Day 1,Pass,NaN,Pass,NaN,Pass,schedule_B,schedule_B,13,7,1,Screen 1,Zone1,continue_button,497,NaN,NaN,,NaN,0,1,0,NaN,NaN,NaN,NaN,NaN,trial_left,blueBox.png,greenBox.png,blueBox.png,al2_uncon.png,23,12,NaN,NaN,0.85,0.15,1,0,0,0,Stable,Stable,2.361,0.992,0.5,1.975,inexpert
60,1671315611212,17/12/2022 22:20:11,1671315609169,0,17/12/2022 22:20:09,109680,37,task-rbyw,repeat-u7ds#1->-repeat-l3h2#1,26007080,BLIND,7681389,NaN,complete,NaN,NaN,computer,Desktop or Laptop,Mac OS 10.15.7,Safari 14.1.2,1440x900,1440x820,End of Day 1,SLS,90,B,NaN,NaN,NaN,Pass,End of Day 1,Pass,NaN,Pass,NaN,Pass,schedule_B,schedule_B,13,7,2,individual,Zone4,timelimit_screen,1000,NaN,NaN,,NaN,0,1,0,NaN,NaN,1,NaN,NaN,trial_left,blueBox.png,greenBox.png,blueBox.png,al2_uncon.png,23,12,NaN,NaN,0.85,0.15,1,0,0,0,Stable,Stable,2.361,0.992,0.5,1.975,inexpert
61,1671315611992,17/12/2022 22:20:11,1671315609965,0,17/12/2022 22:20:09,109680,37,task-rbyw,repeat-u7ds#1->-repeat-l3h2#1,26007080,BLIND,7681389,NaN,complete,NaN,NaN,computer,Desktop or Laptop,Mac OS 10.15.7,Safari 14.1.2,1440x900,1440x820,End of Day 1,SLS,90,B,NaN,NaN,NaN,Pass,End of Day 1,Pass,NaN,Pass,NaN,Pass,schedule_B,schedule_B,13,7,3,offer,bluebox,response_button_image,781.999999999985,NaN,NaN,blueBox.png,1,1,0,0,NaN,NaN,NaN,NaN,NaN,trial_left,blueBox.png,greenBox.png,blueBox.png,al2_uncon.png,23,12,NaN,NaN,0.85,0.15,1,0,0,0,Stable,Stable,2.361,0.992,0.5,1.975,inexpert
62,1671315613986,17/12/2022 22:20:13,1671315611953,0,17/12/2022 22:20:11,109680,37,task-rbyw,repeat-u7ds#1->-repeat-l3h2#1,26007080,BLIND,7681389,NaN,complete,NaN,NaN,computer,Desktop or Laptop,Mac OS 10.15.7,Safari 14.1.2,1440x900,1440x820,End of Day 1,SLS,90,B,NaN,NaN,NaN,Pass,End of Day 1,Pass,NaN,Pass,NaN,Pass,schedule_B,schedule_B,13,7,5,feedback_r,Zone7,timelimit_screen,2000,NaN,NaN,,NaN,0,1,0,NaN,NaN,1,NaN,NaN,trial_left,blueBox.png,greenBox.png,blueBox.png,al2_uncon.png,23,12,NaN,NaN,0.85,0.15,1,0,0,0,Stable,Stable,2.361,0.992,0.5,1.975,inexpert
63,1671315614128,17/12/2022 22:20:14,1671315612103,0,17/12/2022 22:20:12,109680,37,task-rbyw,repeat-u7ds#1->-repeat-l3h2#1,26007080,BLIND,7681389,NaN,complete,NaN,NaN,computer,Desktop or Laptop,Mac OS 10.15.7,Safari 14.1.2,1440x900,1440x820,End of Day 1,SLS,90,B,NaN,NaN,NaN,Pass,End of Day 1,Pass,NaN,Pass,NaN,Pass,schedule_B,schedule_B,13,7,6,end,Zone1,timelimit_screen,150,NaN,NaN,,NaN,0,1,0,NaN,NaN,1,NaN,NaN,trial_left,blueBox.png,greenBox.png,blueBox.png,al2_uncon.png,23,12,NaN,NaN,0.85,0.15,1,0,0,0,Stable,Stable,2.361,0.992,0.5,1.975,inexpert
64,1671315615163,17/12/2022 22:20:15,1671315613128,0,17/12/2022 22:20:13,109680,37,task-rbyw,repeat-u7ds#1->-repeat-l3h2#1,26007080,BLIND,7681389,NaN,complete,NaN,NaN,computer,Desktop or Laptop,Mac OS 10.15.7,Safari 14.1.2,1440x900,1440x820,End of Day 1,SLS,90,B,NaN,NaN,NaN,Pass,End of Day 1,Pass,NaN,Pass,NaN,Pass,schedule_B,schedule_B,14,6,1,Screen 1,Zone1,continue_button,1002,NaN,NaN,,NaN,0,1,0,NaN,NaN,NaN,NaN,NaN,trial_right,blueBox.png,blueBox.png,greenBox.png,al2_uncon.png,24,13,NaN,NaN,0.85,0.15,1,0,0,1,Stable,Stable,1.05,1.95,1.319,1.487,inexpert
65,1671315616147,17/12/2022 22:20:16,1671315614119,0,17/12/2022 22:20:14,109680,37,task-rbyw,repeat-u7ds#1->-repeat-l3h2#1,26007080,BLIND,7681389,NaN,complete,NaN,NaN,computer,Desktop or Laptop,Mac OS 10.15.7,Safari 14.1.2,1440x900,1440x820,End of Day 1,SLS,90,B,NaN,NaN,NaN,Pass,End of Day 1,Pass,NaN,Pass,NaN,Pass,schedule_B,schedule_B,14,6,2,individual,Zone4,timelimit_screen,1000,NaN,NaN,,NaN,0,1,0,NaN,NaN,1,NaN,NaN,trial_right,blueBox.png,blueBox.png,greenBox.png,al2_uncon.png,24,13,NaN,NaN,0.85,0.15,1,0,0,1,Stable,Stable,1.05,1.95,1.319,1.487,inexpert
66,1671315617273,17/12/2022 22:20:17,1671315615235,0,17/12/2022 22:20:15,109680,37,task-rbyw,repeat-u7ds#1->-repeat-l3h2#1,26007080,BLIND,7681389,NaN,complete,NaN,NaN,computer,Desktop or Laptop,Mac OS 10.15.7,Safari 14.1.2,1440x900,1440x820,End of Day 1,SLS,90,B,NaN,NaN,NaN,Pass,End of Day 1,Pass,NaN,Pass,NaN,Pass,schedule_B,schedule_B,14,6,3,offer,Zone2,response_button_image,1101,NaN,NaN,blueBox.png,1,1,0,0,NaN,NaN,NaN,NaN,NaN,trial_right,blueBox.png,blueBox.png,greenBox.png,al2_uncon.png,24,13,NaN,NaN,0.85,0.15,1,0,0,1,Stable,Stable,1.05,1.95,1.319,1.487,inexpert
67,1671315619240,17/12/2022 22:20:19,1671315617220,0,17/12/2022 22:20:17,109680,37,task-rbyw,repeat-u7ds#1->-repeat-l3h2#1,26007080,BLIND,7681389,NaN,complete,NaN,NaN,computer,Desktop or Laptop,Mac OS 10.15.7,Safari 14.1.2,1440x900,1440x820,End of Day 1,SLS,90,B,NaN,NaN,NaN,Pass,End of Day 1,Pass,NaN,Pass,NaN,Pass,schedule_B,schedule_B,14,6,4,feedback_l,Zone7,timelimit_screen,2000,NaN,NaN,,NaN,0,1,0,NaN,NaN,1,NaN,NaN,trial_right,blueBox.png,blueBox.png,greenBox.png,al2_uncon.png,24,13,NaN,NaN,0.85,0.15,1,0,0,1,Stable,Stable,1.05,1.95,1.319,1.487,inexpert
68,1671315619405,17/12/2022 22:20:19,1671315617369,0,17/12/2022 22:20:17,109680,37,task-rbyw,repeat-u7ds#1->-repeat-l3h2#1,26007080,BLIND,7681389,NaN,complete,NaN,NaN,computer,Desktop or Laptop,Mac OS 10.15.7,Safari 14.1.2,1440x900,1440x820,End of Day 1,SLS,90,B,NaN,NaN,NaN,Pass,End of Day 1,Pass,NaN,Pass,NaN,Pass,schedule_B,schedule_B,14,6,6,end,Zone1,timelimit_screen,150,NaN,NaN,,NaN,0,1,0,NaN,NaN,1,NaN,NaN,trial_right,blueBox.png,blueBox.png,greenBox.png,al2_uncon.png,24,13,NaN,NaN,0.85,0.15,1,0,0,1,Stable,Stable,1.05,1.95,1.319,1.487,inexpert
69,1671315619911,17/12/2022 22:20:19,1671315617895,0,17/12/2022 22:20:17,109680,37,task-rbyw,repeat-u7ds#1->-repeat-l3h2#1,26007080,BLIND,7681389,NaN,complete,NaN,NaN,computer,Desktop or Laptop,Mac OS 10.15.7,Safari 14.1.2,1440x900,1440x820,End of Day 1,SLS,90,B,NaN,NaN,NaN,Pass,End of Day 1,Pass,NaN,Pass,NaN,Pass,schedule_B,schedule_B,15,7,1,Screen 1,Zone1,continue_button,504,NaN,NaN,,NaN,0,1,0,NaN,NaN,NaN,NaN,NaN,trial_right,blueBox.png,blueBox.png,greenBox.png,al2_uncon.png,25,14,NaN,NaN,0.85,0.15,1,0,0,1,Stable,Stable,3.395,0.84,0.803,1.252,inexpert
70,1671315620920,17/12/2022 22:20:20,1671315618886,0,17/12/2022 22:20:18,109680,37,task-rbyw,repeat-u7ds#1->-repeat-l3h2#1,26007080,BLIND,7681389,NaN,complete,NaN,NaN,computer,Desktop or Laptop,Mac OS 10.15.7,Safari 14.1.2,1440x900,1440x820,End of Day 1,SLS,90,B,NaN,NaN,NaN,Pass,End of Day 1,Pass,NaN,Pass,NaN,Pass,schedule_B,schedule_B,15,7,2,individual,Zone4,timelimit_screen,1000,NaN,NaN,,NaN,0,1,0,NaN,NaN,1,NaN,NaN,trial_right,blueBox.png,blueBox.png,greenBox.png,al2_uncon.png,25,14,NaN,NaN,0.85,0.15,1,0,0,1,Stable,Stable,3.395,0.84,0.803,1.252,inexpert
71,1671315621627,17/12/2022 22:20:21,1671315619609,0,17/12/2022 22:20:19,109680,37,task-rbyw,repeat-u7ds#1->-repeat-l3h2#1,26007080,BLIND,7681389,NaN,complete,NaN,NaN,computer,Desktop or Laptop,Mac OS 10.15.7,Safari 14.1.2,1440x900,1440x820,End of Day 1,SLS,90,B,NaN,NaN,NaN,Pass,End of Day 1,Pass,NaN,Pass,NaN,Pass,schedule_B,schedule_B,15,7,3,offer,Zone2,response_button_image,709,NaN,NaN,blueBox.png,1,1,0,0,NaN,NaN,NaN,NaN,NaN,trial_right,blueBox.png,blueBox.png,greenBox.png,al2_uncon.png,25,14,NaN,NaN,0.85,0.15,1,0,0,1,Stable,Stable,3.395,0.84,0.803,1.252,inexpert
72,1671315623627,17/12/2022 22:20:23,1671315621603,0,17/12/2022 22:20:21,109680,37,task-rbyw,repeat-u7ds#1->-repeat-l3h2#1,26007080,BLIND,7681389,NaN,complete,NaN,NaN,computer,Desktop or Laptop,Mac OS 10.15.7,Safari 14.1.2,1440x900,1440x820,End of Day 1,SLS,90,B,NaN,NaN,NaN,Pass,End of Day 1,Pass,NaN,Pass,NaN,Pass,schedule_B,schedule_B,15,7,4,feedback_l,Zone7,timelimit_screen,2000,NaN,NaN,,NaN,0,1,0,NaN,NaN,1,NaN,NaN,trial_right,blueBox.png,blueBox.png,greenBox.png,al2_uncon.png,25,14,NaN,NaN,0.85,0.15,1,0,0,1,Stable,Stable,3.395,0.84,0.803,1.252,inexpert
73,1671315623791,17/12/2022 22:20:23,1671315621753,0,17/12/2022 22:20:21,109680,37,task-rbyw,repeat-u7ds#1->-repeat-l3h2#1,26007080,BLIND,7681389,NaN,complete,NaN,NaN,computer,Desktop or Laptop,Mac OS 10.15.7,Safari 14.1.2,1440x900,1440x820,End of Day 1,SLS,90,B,NaN,NaN,NaN,Pass,End of Day 1,Pass,NaN,Pass,NaN,Pass,schedule_B,schedule_B,15,7,6,end,Zone1,timelimit_screen,150,NaN,NaN,,NaN,0,1,0,NaN,NaN,1,NaN,NaN,trial_right,blueBox.png,blueBox.png,greenBox.png,al2_uncon.png,25,14,NaN,NaN,0.85,0.15,1,0,0,1,Stable,Stable,3.395,0.84,0.803,1.252,inexpert
74,1671315624548,17/12/2022 22:20:24,1671315622519,0,17/12/2022 22:20:22,109680,37,task-rbyw,repeat-u7ds#1->-repeat-l3h2#1,26007080,BLIND,7681389,NaN,complete,NaN,NaN,computer,Desktop or Laptop,Mac OS 10.15.7,Safari 14.1.2,1440x900,1440x820,End of Day 1,SLS,90,B,NaN,NaN,NaN,Pass,End of Day 1,Pass,NaN,Pass,NaN,Pass,schedule_B,schedule_B,16,8,1,Screen 1,Zone1,continue_button,746,NaN,NaN,,NaN,0,1,0,NaN,NaN,NaN,NaN,NaN,trial_left,blueBox.png,blueBox.png,greenBox.png,al2_uncon.png,26,15,NaN,NaN,0.85,0.15,1,1,1,1,Stable,Stable,2.689,1.067,1.697,2.731,inexpert
75,1671315625560,17/12/2022 22:20:25,1671315623503,0,17/12/2022 22:20:23,109680,37,task-rbyw,repeat-u7ds#1->-repeat-l3h2#1,26007080,BLIND,7681389,NaN,complete,NaN,NaN,computer,Desktop or Laptop,Mac OS 10.15.7,Safari 14.1.2,1440x900,1440x820,End of Day 1,SLS,90,B,NaN,NaN,NaN,Pass,End of Day 1,Pass,NaN,Pass,NaN,Pass,schedule_B,schedule_B,16,8,2,individual,Zone4,timelimit_screen,1000,NaN,NaN,,NaN,0,1,0,NaN,NaN,1,NaN,NaN,trial_left,blueBox.png,blueBox.png,greenBox.png,al2_uncon.png,26,15,NaN,NaN,0.85,0.15,1,1,1,1,Stable,Stable,2.689,1.067,1.697,2.731,inexpert
76,1671315626406,17/12/2022 22:20:26,1671315624367,0,17/12/2022 22:20:24,109680,37,task-rbyw,repeat-u7ds#1->-repeat-l3h2#1,26007080,BLIND,7681389,NaN,complete,NaN,NaN,computer,Desktop or Laptop,Mac OS 10.15.7,Safari 14.1.2,1440x900,1440x820,End of Day 1,SLS,90,B,NaN,NaN,NaN,Pass,End of Day 1,Pass,NaN,Pass,NaN,Pass,schedule_B,schedule_B,16,8,3,offer,bluebox,response_button_image,850,NaN,NaN,greenBox.png,1,0,1,0,NaN,NaN,NaN,NaN,NaN,trial_left,blueBox.png,blueBox.png,greenBox.png,al2_uncon.png,26,15,NaN,NaN,0.85,0.15,1,1,1,1,Stable,Stable,2.689,1.067,1.697,2.731,inexpert
77,1671315628380,17/12/2022 22:20:28,1671315626353,0,17/12/2022 22:20:26,109680,37,task-rbyw,repeat-u7ds#1->-repeat-l3h2#1,26007080,BLIND,7681389,NaN,complete,NaN,NaN,computer,Desktop or Laptop,Mac OS 10.15.7,Safari 14.1.2,1440x900,1440x820,End of Day 1,SLS,90,B,NaN,NaN,NaN,Pass,End of Day 1,Pass,NaN,Pass,NaN,Pass,schedule_B,schedule_B,16,8,5,feedback_r,Zone7,timelimit_screen,2000,NaN,NaN,,NaN,0,1,0,NaN,NaN,1,NaN,NaN,trial_left,blueBox.png,blueBox.png,greenBox.png,al2_uncon.png,26,15,NaN,NaN,0.85,0.15,1,1,1,1,Stable,Stable,2.689,1.067,1.697,2.731,inexpert
78,1671315628535,17/12/2022 22:20:28,1671315626503,0,17/12/2022 22:20:26,109680,37,task-rbyw,repeat-u7ds#1->-repeat-l3h2#1,26007080,BLIND,7681389,NaN,complete,NaN,NaN,computer,Desktop or Laptop,Mac OS 10.15.7,Safari 14.1.2,1440x900,1440x820,End of Day 1,SLS,90,B,NaN,NaN,NaN,Pass,End of Day 1,Pass,NaN,Pass,NaN,Pass,schedule_B,schedule_B,16,8,6,end,Zone1,timelimit_screen,150,NaN,NaN,,NaN,0,1,0,NaN,NaN,1,NaN,NaN,trial_left,blueBox.png,blueBox.png,greenBox.png,al2_uncon.png,26,15,NaN,NaN,0.85,0.15,1,1,1,1,Stable,Stable,2.689,1.067,1.697,2.731,inexpert
79,1671315629547,17/12/2022 22:20:29,1671315627515,0,17/12/2022 22:20:27,109680,37,task-rbyw,repeat-u7ds#1->-repeat-l3h2#1,26007080,BLIND,7681389,NaN,complete,NaN,NaN,computer,Desktop or Laptop,Mac OS 10.15.7,Safari 14.1.2,1440x900,1440x820,End of Day 1,SLS,90,B,NaN,NaN,NaN,Pass,End of Day 1,Pass,NaN,Pass,NaN,Pass,schedule_B,schedule_B,17,9,1,Screen 1,Zone1,continue_button,990,NaN,NaN,,NaN,0,1,0,NaN,NaN,NaN,NaN,NaN,trial_left,greenBox.png,greenBox.png,blueBox.png,al2_uncon.png,27,16,NaN,NaN,0.15,0.15,0,1,0,0,Stable,Stable,1.378,0.689,0.878,2.076,inexpert
80,1671315630528,17/12/2022 22:20:30,1671315628503,0,17/12/2022 22:20:28,109680,37,task-rbyw,repeat-u7ds#1->-repeat-l3h2#1,26007080,BLIND,7681389,NaN,complete,NaN,NaN,computer,Desktop or Laptop,Mac OS 10.15.7,Safari 14.1.2,1440x900,1440x820,End of Day 1,SLS,90,B,NaN,NaN,NaN,Pass,End of Day 1,Pass,NaN,Pass,NaN,Pass,schedule_B,schedule_B,17,9,2,individual,Zone4,timelimit_screen,1000,NaN,NaN,,NaN,0,1,0,NaN,NaN,1,NaN,NaN,trial_left,greenBox.png,greenBox.png,blueBox.png,al2_uncon.png,27,16,NaN,NaN,0.15,0.15,0,1,0,0,Stable,Stable,1.378,0.689,0.878,2.076,inexpert
81,1671315631212,17/12/2022 22:20:31,1671315629190,0,17/12/2022 22:20:29,109680,37,task-rbyw,repeat-u7ds#1->-repeat-l3h2#1,26007080,BLIND,7681389,NaN,complete,NaN,NaN,computer,Desktop or Laptop,Mac OS 10.15.7,Safari 14.1.2,1440x900,1440x820,End of Day 1,SLS,90,B,NaN,NaN,NaN,Pass,End of Day 1,Pass,NaN,Pass,NaN,Pass,schedule_B,schedule_B,17,9,3,offer,Zone2,response_button_image,673.000000000015,NaN,NaN,greenBox.png,1,1,0,0,NaN,NaN,NaN,NaN,NaN,trial_left,greenBox.png,greenBox.png,blueBox.png,al2_uncon.png,27,16,NaN,NaN,0.15,0.15,0,1,0,0,Stable,Stable,1.378,0.689,0.878,2.076,inexpert
82,1671315633230,17/12/2022 22:20:33,1671315631187,0,17/12/2022 22:20:31,109680,37,task-rbyw,repeat-u7ds#1->-repeat-l3h2#1,26007080,BLIND,7681389,NaN,complete,NaN,NaN,computer,Desktop or Laptop,Mac OS 10.15.7,Safari 14.1.2,1440x900,1440x820,End of Day 1,SLS,90,B,NaN,NaN,NaN,Pass,End of Day 1,Pass,NaN,Pass,NaN,Pass,schedule_B,schedule_B,17,9,4,feedback_l,Zone7,timelimit_screen,2000,NaN,NaN,,NaN,0,1,0,NaN,NaN,1,NaN,NaN,trial_left,greenBox.png,greenBox.png,blueBox.png,al2_uncon.png,27,16,NaN,NaN,0.15,0.15,0,1,0,0,Stable,Stable,1.378,0.689,0.878,2.076,inexpert
83,1671315633359,17/12/2022 22:20:33,1671315631336,0,17/12/2022 22:20:31,109680,37,task-rbyw,repeat-u7ds#1->-repeat-l3h2#1,26007080,BLIND,7681389,NaN,complete,NaN,NaN,computer,Desktop or Laptop,Mac OS 10.15.7,Safari 14.1.2,1440x900,1440x820,End of Day 1,SLS,90,B,NaN,NaN,NaN,Pass,End of Day 1,Pass,NaN,Pass,NaN,Pass,schedule_B,schedule_B,17,9,6,end,Zone1,timelimit_screen,150,NaN,NaN,,NaN,0,1,0,NaN,NaN,1,NaN,NaN,trial_left,greenBox.png,greenBox.png,blueBox.png,al2_uncon.png,27,16,NaN,NaN,0.15,0.15,0,1,0,0,Stable,Stable,1.378,0.689,0.878,2.076,inexpert
84,1671315634198,17/12/2022 22:20:34,1671315632163,0,17/12/2022 22:20:32,109680,37,task-rbyw,repeat-u7ds#1->-repeat-l3h2#1,26007080,BLIND,7681389,NaN,complete,NaN,NaN,computer,Desktop or Laptop,Mac OS 10.15.7,Safari 14.1.2,1440x900,1440x820,End of Day 1,SLS,90,B,NaN,NaN,NaN,Pass,End of Day 1,Pass,NaN,Pass,NaN,Pass,schedule_B,schedule_B,18,8,1,Screen 1,Zone1,continue_button,802,NaN,NaN,,NaN,0,1,0,NaN,NaN,NaN,NaN,NaN,trial_right,greenBox.png,blueBox.png,greenBox.png,al2_uncon.png,28,17,NaN,NaN,0.15,0.15,0,1,0,1,Stable,Stable,2.714,0.739,1.975,1.134,inexpert
85,1671315635182,17/12/2022 22:20:35,1671315633153,0,17/12/2022 22:20:33,109680,37,task-rbyw,repeat-u7ds#1->-repeat-l3h2#1,26007080,BLIND,7681389,NaN,complete,NaN,NaN,computer,Desktop or Laptop,Mac OS 10.15.7,Safari 14.1.2,1440x900,1440x820,End of Day 1,SLS,90,B,NaN,NaN,NaN,Pass,End of Day 1,Pass,NaN,Pass,NaN,Pass,schedule_B,schedule_B,18,8,2,individual,Zone4,timelimit_screen,1000,NaN,NaN,,NaN,0,1,0,NaN,NaN,1,NaN,NaN,trial_right,greenBox.png,blueBox.png,greenBox.png,al2_uncon.png,28,17,NaN,NaN,0.15,0.15,0,1,0,1,Stable,Stable,2.714,0.739,1.975,1.134,inexpert
86,1671315635833,17/12/2022 22:20:35,1671315633808,0,17/12/2022 22:20:33,109680,37,task-rbyw,repeat-u7ds#1->-repeat-l3h2#1,26007080,BLIND,7681389,NaN,complete,NaN,NaN,computer,Desktop or Laptop,Mac OS 10.15.7,Safari 14.1.2,1440x900,1440x820,End of Day 1,SLS,90,B,NaN,NaN,NaN,Pass,End of Day 1,Pass,NaN,Pass,NaN,Pass,schedule_B,schedule_B,18,8,3,offer,Zone3,response_button_image,641.000000000015,NaN,NaN,greenBox.png,1,1,0,0,NaN,NaN,NaN,NaN,NaN,trial_right,greenBox.png,blueBox.png,greenBox.png,al2_uncon.png,28,17,NaN,NaN,0.15,0.15,0,1,0,1,Stable,Stable,2.714,0.739,1.975,1.134,inexpert
87,1671315637825,17/12/2022 22:20:37,1671315635801,0,17/12/2022 22:20:35,109680,37,task-rbyw,repeat-u7ds#1->-repeat-l3h2#1,26007080,BLIND,7681389,NaN,complete,NaN,NaN,computer,Desktop or Laptop,Mac OS 10.15.7,Safari 14.1.2,1440x900,1440x820,End of Day 1,SLS,90,B,NaN,NaN,NaN,Pass,End of Day 1,Pass,NaN,Pass,NaN,Pass,schedule_B,schedule_B,18,8,5,feedback_r,Zone7,timelimit_screen,1999,NaN,NaN,,NaN,0,1,0,NaN,NaN,1,NaN,NaN,trial_right,greenBox.png,blueBox.png,greenBox.png,al2_uncon.png,28,17,NaN,NaN,0.15,0.15,0,1,0,1,Stable,Stable,2.714,0.739,1.975,1.134,inexpert
88,1671315637987,17/12/2022 22:20:37,1671315635952,0,17/12/2022 22:20:35,109680,37,task-rbyw,repeat-u7ds#1->-repeat-l3h2#1,26007080,BLIND,7681389,NaN,complete,NaN,NaN,computer,Desktop or Laptop,Mac OS 10.15.7,Safari 14.1.2,1440x900,1440x820,End of Day 1,SLS,90,B,NaN,NaN,NaN,Pass,End of Day 1,Pass,NaN,Pass,NaN,Pass,schedule_B,schedule_B,18,8,6,end,Zone1,timelimit_screen,151,NaN,NaN,,NaN,0,1,0,NaN,NaN,1,NaN,NaN,trial_right,greenBox.png,blueBox.png,greenBox.png,al2_uncon.png,28,17,NaN,NaN,0.15,0.15,0,1,0,1,Stable,Stable,2.714,0.739,1.975,1.134,inexpert
89,1671315638919,17/12/2022 22:20:38,1671315636887,0,17/12/2022 22:20:36,109680,37,task-rbyw,repeat-u7ds#1->-repeat-l3h2#1,26007080,BLIND,7681389,NaN,complete,NaN,NaN,computer,Desktop or Laptop,Mac OS 10.15.7,Safari 14.1.2,1440x900,1440x820,End of Day 1,SLS,90,B,NaN,NaN,NaN,Pass,End of Day 1,Pass,NaN,Pass,NaN,Pass,schedule_B,schedule_B,19,9,1,Screen 1,Zone1,continue_button,919,NaN,NaN,,NaN,0,1,0,NaN,NaN,NaN,NaN,NaN,trial_right,greenBox.png,greenBox.png,blueBox.png,al2_uncon.png,29,18,NaN,NaN,0.15,0.15,0,0,1,0,Stable,Stable,3.874,0.676,1.496,1.639,inexpert
90,1671315639910,17/12/2022 22:20:39,1671315637886,0,17/12/2022 22:20:37,109680,37,task-rbyw,repeat-u7ds#1->-repeat-l3h2#1,26007080,BLIND,7681389,NaN,complete,NaN,NaN,computer,Desktop or Laptop,Mac OS 10.15.7,Safari 14.1.2,1440x900,1440x820,End of Day 1,SLS,90,B,NaN,NaN,NaN,Pass,End of Day 1,Pass,NaN,Pass,NaN,Pass,schedule_B,schedule_B,19,9,2,individual,Zone4,timelimit_screen,1000,NaN,NaN,,NaN,0,1,0,NaN,NaN,1,NaN,NaN,trial_right,greenBox.png,greenBox.png,blueBox.png,al2_uncon.png,29,18,NaN,NaN,0.15,0.15,0,0,1,0,Stable,Stable,3.874,0.676,1.496,1.639,inexpert
91,1671315640525,17/12/2022 22:20:40,1671315638493,0,17/12/2022 22:20:38,109680,37,task-rbyw,repeat-u7ds#1->-repeat-l3h2#1,26007080,BLIND,7681389,NaN,complete,NaN,NaN,computer,Desktop or Laptop,Mac OS 10.15.7,Safari 14.1.2,1440x900,1440x820,End of Day 1,SLS,90,B,NaN,NaN,NaN,Pass,End of Day 1,Pass,NaN,Pass,NaN,Pass,schedule_B,schedule_B,19,9,3,offer,Zone3,response_button_image,595,NaN,NaN,blueBox.png,1,0,1,0,NaN,NaN,NaN,NaN,NaN,trial_right,greenBox.png,greenBox.png,blueBox.png,al2_uncon.png,29,18,NaN,NaN,0.15,0.15,0,0,1,0,Stable,Stable,3.874,0.676,1.496,1.639,inexpert
92,1671315642515,17/12/2022 22:20:42,1671315640486,0,17/12/2022 22:20:40,109680,37,task-rbyw,repeat-u7ds#1->-repeat-l3h2#1,26007080,BLIND,7681389,NaN,complete,NaN,NaN,computer,Desktop or Laptop,Mac OS 10.15.7,Safari 14.1.2,1440x900,1440x820,End of Day 1,SLS,90,B,NaN,NaN,NaN,Pass,End of Day 1,Pass,NaN,Pass,NaN,Pass,schedule_B,schedule_B,19,9,5,feedback_r,Zone7,timelimit_screen,2001,NaN,NaN,,NaN,0,1,0,NaN,NaN,1,NaN,NaN,trial_right,greenBox.png,greenBox.png,blueBox.png,al2_uncon.png,29,18,NaN,NaN,0.15,0.15,0,0,1,0,Stable,Stable,3.874,0.676,1.496,1.639,inexpert
93,1671315642686,17/12/2022 22:20:42,1671315640636,0,17/12/2022 22:20:40,109680,37,task-rbyw,repeat-u7ds#1->-repeat-l3h2#1,26007080,BLIND,7681389,NaN,complete,NaN,NaN,computer,Desktop or Laptop,Mac OS 10.15.7,Safari 14.1.2,1440x900,1440x820,End of Day 1,SLS,90,B,NaN,NaN,NaN,Pass,End of Day 1,Pass,NaN,Pass,NaN,Pass,schedule_B,schedule_B,19,9,6,end,Zone1,timelimit_screen,150,NaN,NaN,,NaN,0,1,0,NaN,NaN,1,NaN,NaN,trial_right,greenBox.png,greenBox.png,blueBox.png,al2_uncon.png,29,18,NaN,NaN,0.15,0.15,0,0,1,0,Stable,Stable,3.874,0.676,1.496,1.639,inexpert
94,1671315643531,17/12/2022 22:20:43,1671315641507,0,17/12/2022 22:20:41,109680,37,task-rbyw,repeat-u7ds#1->-repeat-l3h2#1,26007080,BLIND,7681389,NaN,complete,NaN,NaN,computer,Desktop or Laptop,Mac OS 10.15.7,Safari 14.1.2,1440x900,1440x820,End of Day 1,SLS,90,B,NaN,NaN,NaN,Pass,End of Day 1,Pass,NaN,Pass,NaN,Pass,schedule_B,schedule_B,20,10,1,Screen 1,Zone1,continue_button,852,NaN,NaN,,NaN,0,1,0,NaN,NaN,NaN,NaN,NaN,trial_left,greenBox.png,greenBox.png,blueBox.png,al2_uncon.png,30,19,NaN,NaN,0.15,0.15,0,1,0,0,Stable,Stable,1.252,1.193,0.853,2.681,inexpert
95,1671315644526,17/12/2022 22:20:44,1671315642504,0,17/12/2022 22:20:42,109680,37,task-rbyw,repeat-u7ds#1->-repeat-l3h2#1,26007080,BLIND,7681389,NaN,complete,NaN,NaN,computer,Desktop or Laptop,Mac OS 10.15.7,Safari 14.1.2,1440x900,1440x820,End of Day 1,SLS,90,B,NaN,NaN,NaN,Pass,End of Day 1,Pass,NaN,Pass,NaN,Pass,schedule_B,schedule_B,20,10,2,individual,Zone4,timelimit_screen,1000,NaN,NaN,,NaN,0,1,0,NaN,NaN,1,NaN,NaN,trial_left,greenBox.png,greenBox.png,blueBox.png,al2_uncon.png,30,19,NaN,NaN,0.15,0.15,0,1,0,0,Stable,Stable,1.252,1.193,0.853,2.681,inexpert
96,1671315645526,17/12/2022 22:20:45,1671315643492,0,17/12/2022 22:20:43,109680,37,task-rbyw,repeat-u7ds#1->-repeat-l3h2#1,26007080,BLIND,7681389,NaN,complete,NaN,NaN,computer,Desktop or Laptop,Mac OS 10.15.7,Safari 14.1.2,1440x900,1440x820,End of Day 1,SLS,90,B,NaN,NaN,NaN,Pass,End of Day 1,Pass,NaN,Pass,NaN,Pass,schedule_B,schedule_B,20,10,3,offer,bluebox,response_button_image,975,NaN,NaN,blueBox.png,1,0,1,0,NaN,NaN,NaN,NaN,NaN,trial_left,greenBox.png,greenBox.png,blueBox.png,al2_uncon.png,30,19,NaN,NaN,0.15,0.15,0,1,0,0,Stable,Stable,1.252,1.193,0.853,2.681,inexpert
97,1671315647500,17/12/2022 22:20:47,1671315645486,0,17/12/2022 22:20:45,109680,37,task-rbyw,repeat-u7ds#1->-repeat-l3h2#1,26007080,BLIND,7681389,NaN,complete,NaN,NaN,computer,Desktop or Laptop,Mac OS 10.15.7,Safari 14.1.2,1440x900,1440x820,End of Day 1,SLS,90,B,NaN,NaN,NaN,Pass,End of Day 1,Pass,NaN,Pass,NaN,Pass,schedule_B,schedule_B,20,10,5,feedback_r,Zone7,timelimit_screen,2001,NaN,NaN,,NaN,0,1,0,NaN,NaN,1,NaN,NaN,trial_left,greenBox.png,greenBox.png,blueBox.png,al2_uncon.png,30,19,NaN,NaN,0.15,0.15,0,1,0,0,Stable,Stable,1.252,1.193,0.853,2.681,inexpert
98,1671315647677,17/12/2022 22:20:47,1671315645636,0,17/12/2022 22:20:45,109680,37,task-rbyw,repeat-u7ds#1->-repeat-l3h2#1,26007080,BLIND,7681389,NaN,complete,NaN,NaN,computer,Desktop or Laptop,Mac OS 10.15.7,Safari 14.1.2,1440x900,1440x820,End of Day 1,SLS,90,B,NaN,NaN,NaN,Pass,End of Day 1,Pass,NaN,Pass,NaN,Pass,schedule_B,schedule_B,20,10,6,end,Zone1,timelimit_screen,150,NaN,NaN,,NaN,0,1,0,NaN,NaN,1,NaN,NaN,trial_left,greenBox.png,greenBox.png,blueBox.png,al2_uncon.png,30,19,NaN,NaN,0.15,0.15,0,1,0,0,Stable,Stable,1.252,1.193,0.853,2.681,inexpert
99,1671315648999,17/12/2022 22:20:48,1671315646970,0,17/12/2022 22:20:46,109680,37,task-rbyw,repeat-u7ds#1->-repeat-l3h2#1,26007080,BLIND,7681389,NaN,complete,NaN,NaN,computer,Desktop or Laptop,Mac OS 10.15.7,Safari 14.1.2,1440x900,1440x820,End of Day 1,SLS,90,B,NaN,NaN,NaN,Pass,End of Day 1,Pass,NaN,Pass,NaN,Pass,schedule_B,schedule_B,21,10,1,Screen 1,Zone1,continue_button,1311,NaN,NaN,,NaN,0,1,0,NaN,NaN,NaN,NaN,NaN,trial_right,greenBox.png,greenBox.png,blueBox.png,al2_uncon.png,41,20,NaN,NaN,0.15,0.15,0,0,1,0,Stable,Stable,3.521,1.723,1.37,1.655,inexpert
100,1671315650001,17/12/2022 22:20:50,1671315647970,0,17/12/2022 22:20:47,109680,37,task-rbyw,repeat-u7ds#1->-repeat-l3h2#1,26007080,BLIND,7681389,NaN,complete,NaN,NaN,computer,Desktop or Laptop,Mac OS 10.15.7,Safari 14.1.2,1440x900,1440x820,End of Day 1,SLS,90,B,NaN,NaN,NaN,Pass,End of Day 1,Pass,NaN,Pass,NaN,Pass,schedule_B,schedule_B,21,10,2,individual,Zone4,timelimit_screen,1000,NaN,NaN,,NaN,0,1,0,NaN,NaN,1,NaN,NaN,trial_right,greenBox.png,greenBox.png,blueBox.png,al2_uncon.png,41,20,NaN,NaN,0.15,0.15,0,0,1,0,Stable,Stable,3.521,1.723,1.37,1.655,inexpert
101,1671315650860,17/12/2022 22:20:50,1671315648843,0,17/12/2022 22:20:48,109680,37,task-rbyw,repeat-u7ds#1->-repeat-l3h2#1,26007080,BLIND,7681389,NaN,complete,NaN,NaN,computer,Desktop or Laptop,Mac OS 10.15.7,Safari 14.1.2,1440x900,1440x820,End of Day 1,SLS,90,B,NaN,NaN,NaN,Pass,End of Day 1,Pass,NaN,Pass,NaN,Pass,schedule_B,schedule_B,21,10,3,offer,Zone2,response_button_image,860,NaN,NaN,greenBox.png,1,1,0,0,NaN,NaN,NaN,NaN,NaN,trial_right,greenBox.png,greenBox.png,blueBox.png,al2_uncon.png,41,20,NaN,NaN,0.15,0.15,0,0,1,0,Stable,Stable,3.521,1.723,1.37,1.655,inexpert
102,1671315652855,17/12/2022 22:20:52,1671315650836,0,17/12/2022 22:20:50,109680,37,task-rbyw,repeat-u7ds#1->-repeat-l3h2#1,26007080,BLIND,7681389,NaN,complete,NaN,NaN,computer,Desktop or Laptop,Mac OS 10.15.7,Safari 14.1.2,1440x900,1440x820,End of Day 1,SLS,90,B,NaN,NaN,NaN,Pass,End of Day 1,Pass,NaN,Pass,NaN,Pass,schedule_B,schedule_B,21,10,4,feedback_l,Zone7,timelimit_screen,2000,NaN,NaN,,NaN,0,1,0,NaN,NaN,1,NaN,NaN,trial_right,greenBox.png,greenBox.png,blueBox.png,al2_uncon.png,41,20,NaN,NaN,0.15,0.15,0,0,1,0,Stable,Stable,3.521,1.723,1.37,1.655,inexpert
103,1671315653020,17/12/2022 22:20:53,1671315650986,0,17/12/2022 22:20:50,109680,37,task-rbyw,repeat-u7ds#1->-repeat-l3h2#1,26007080,BLIND,7681389,NaN,complete,NaN,NaN,computer,Desktop or Laptop,Mac OS 10.15.7,Safari 14.1.2,1440x900,1440x820,End of Day 1,SLS,90,B,NaN,NaN,NaN,Pass,End of Day 1,Pass,NaN,Pass,NaN,Pass,schedule_B,schedule_B,21,10,6,end,Zone1,timelimit_screen,150,NaN,NaN,,NaN,0,1,0,NaN,NaN,1,NaN,NaN,trial_right,greenBox.png,greenBox.png,blueBox.png,al2_uncon.png,41,20,NaN,NaN,0.15,0.15,0,0,1,0,Stable,Stable,3.521,1.723,1.37,1.655,inexpert
104,1671315654466,17/12/2022 22:20:54,1671315652433,0,17/12/2022 22:20:52,109680,37,task-rbyw,repeat-u7ds#1->-repeat-l3h2#1,26007080,BLIND,7681389,NaN,complete,NaN,NaN,computer,Desktop or Laptop,Mac OS 10.15.7,Safari 14.1.2,1440x900,1440x820,End of Day 1,SLS,90,B,NaN,NaN,NaN,Pass,End of Day 1,Pass,NaN,Pass,NaN,Pass,schedule_B,schedule_B,22,11,1,Screen 1,Zone1,continue_button,1426,NaN,NaN,,NaN,0,1,0,NaN,NaN,NaN,NaN,NaN,trial_left,blueBox.png,blueBox.png,greenBox.png,al2_uncon.png,42,21,NaN,NaN,0.85,0.15,1,1,1,1,Stable,Stable,2.336,0.651,1.685,2.882,inexpert
105,1671315655447,17/12/2022 22:20:55,1671315653420,0,17/12/2022 22:20:53,109680,37,task-rbyw,repeat-u7ds#1->-repeat-l3h2#1,26007080,BLIND,7681389,NaN,complete,NaN,NaN,computer,Desktop or Laptop,Mac OS 10.15.7,Safari 14.1.2,1440x900,1440x820,End of Day 1,SLS,90,B,NaN,NaN,NaN,Pass,End of Day 1,Pass,NaN,Pass,NaN,Pass,schedule_B,schedule_B,22,11,2,individual,Zone4,timelimit_screen,1000,NaN,NaN,,NaN,0,1,0,NaN,NaN,1,NaN,NaN,trial_left,blueBox.png,blueBox.png,greenBox.png,al2_uncon.png,42,21,NaN,NaN,0.85,0.15,1,1,1,1,Stable,Stable,2.336,0.651,1.685,2.882,inexpert
106,1671315656180,17/12/2022 22:20:56,1671315654152,0,17/12/2022 22:20:54,109680,37,task-rbyw,repeat-u7ds#1->-repeat-l3h2#1,26007080,BLIND,7681389,NaN,complete,NaN,NaN,computer,Desktop or Laptop,Mac OS 10.15.7,Safari 14.1.2,1440x900,1440x820,End of Day 1,SLS,90,B,NaN,NaN,NaN,Pass,End of Day 1,Pass,NaN,Pass,NaN,Pass,schedule_B,schedule_B,22,11,3,offer,Zone2,response_button_image,718.999999999985,NaN,NaN,blueBox.png,1,1,0,0,NaN,NaN,NaN,NaN,NaN,trial_left,blueBox.png,blueBox.png,greenBox.png,al2_uncon.png,42,21,NaN,NaN,0.85,0.15,1,1,1,1,Stable,Stable,2.336,0.651,1.685,2.882,inexpert
107,1671315658156,17/12/2022 22:20:58,1671315656136,0,17/12/2022 22:20:56,109680,37,task-rbyw,repeat-u7ds#1->-repeat-l3h2#1,26007080,BLIND,7681389,NaN,complete,NaN,NaN,computer,Desktop or Laptop,Mac OS 10.15.7,Safari 14.1.2,1440x900,1440x820,End of Day 1,SLS,90,B,NaN,NaN,NaN,Pass,End of Day 1,Pass,NaN,Pass,NaN,Pass,schedule_B,schedule_B,22,11,4,feedback_l,Zone7,timelimit_screen,2000,NaN,NaN,,NaN,0,1,0,NaN,NaN,1,NaN,NaN,trial_left,blueBox.png,blueBox.png,greenBox.png,al2_uncon.png,42,21,NaN,NaN,0.85,0.15,1,1,1,1,Stable,Stable,2.336,0.651,1.685,2.882,inexpert
108,1671315658311,17/12/2022 22:20:58,1671315656285,0,17/12/2022 22:20:56,109680,37,task-rbyw,repeat-u7ds#1->-repeat-l3h2#1,26007080,BLIND,7681389,NaN,complete,NaN,NaN,computer,Desktop or Laptop,Mac OS 10.15.7,Safari 14.1.2,1440x900,1440x820,End of Day 1,SLS,90,B,NaN,NaN,NaN,Pass,End of Day 1,Pass,NaN,Pass,NaN,Pass,schedule_B,schedule_B,22,11,6,end,Zone1,timelimit_screen,150,NaN,NaN,,NaN,0,1,0,NaN,NaN,1,NaN,NaN,trial_left,blueBox.png,blueBox.png,greenBox.png,al2_uncon.png,42,21,NaN,NaN,0.85,0.15,1,1,1,1,Stable,Stable,2.336,0.651,1.685,2.882,inexpert
109,1671315658842,17/12/2022 22:20:58,1671315656817,0,17/12/2022 22:20:56,109680,37,task-rbyw,repeat-u7ds#1->-repeat-l3h2#1,26007080,BLIND,7681389,NaN,complete,NaN,NaN,computer,Desktop or Laptop,Mac OS 10.15.7,Safari 14.1.2,1440x900,1440x820,End of Day 1,SLS,90,B,NaN,NaN,NaN,Pass,End of Day 1,Pass,NaN,Pass,NaN,Pass,schedule_B,schedule_B,23,11,1,Screen 1,Zone1,continue_button,518,NaN,NaN,,NaN,0,1,0,NaN,NaN,NaN,NaN,NaN,trial_right,blueBox.png,blueBox.png,greenBox.png,al2_uncon.png,43,22,NaN,NaN,0.85,0.15,1,0,0,1,Stable,Stable,3.622,1.319,1.193,1.067,inexpert
110,1671315659828,17/12/2022 22:20:59,1671315657804,0,17/12/2022 22:20:57,109680,37,task-rbyw,repeat-u7ds#1->-repeat-l3h2#1,26007080,BLIND,7681389,NaN,complete,NaN,NaN,computer,Desktop or Laptop,Mac OS 10.15.7,Safari 14.1.2,1440x900,1440x820,End of Day 1,SLS,90,B,NaN,NaN,NaN,Pass,End of Day 1,Pass,NaN,Pass,NaN,Pass,schedule_B,schedule_B,23,11,2,individual,Zone4,timelimit_screen,1001,NaN,NaN,,NaN,0,1,0,NaN,NaN,1,NaN,NaN,trial_right,blueBox.png,blueBox.png,greenBox.png,al2_uncon.png,43,22,NaN,NaN,0.85,0.15,1,0,0,1,Stable,Stable,3.622,1.319,1.193,1.067,inexpert
111,1671315660643,17/12/2022 22:21:00,1671315658616,0,17/12/2022 22:20:58,109680,37,task-rbyw,repeat-u7ds#1->-repeat-l3h2#1,26007080,BLIND,7681389,NaN,complete,NaN,NaN,computer,Desktop or Laptop,Mac OS 10.15.7,Safari 14.1.2,1440x900,1440x820,End of Day 1,SLS,90,B,NaN,NaN,NaN,Pass,End of Day 1,Pass,NaN,Pass,NaN,Pass,schedule_B,schedule_B,23,11,3,offer,Zone2,response_button_image,798,NaN,NaN,blueBox.png,1,1,0,0,NaN,NaN,NaN,NaN,NaN,trial_right,blueBox.png,blueBox.png,greenBox.png,al2_uncon.png,43,22,NaN,NaN,0.85,0.15,1,0,0,1,Stable,Stable,3.622,1.319,1.193,1.067,inexpert
112,1671315662623,17/12/2022 22:21:02,1671315660603,0,17/12/2022 22:21:00,109680,37,task-rbyw,repeat-u7ds#1->-repeat-l3h2#1,26007080,BLIND,7681389,NaN,complete,NaN,NaN,computer,Desktop or Laptop,Mac OS 10.15.7,Safari 14.1.2,1440x900,1440x820,End of Day 1,SLS,90,B,NaN,NaN,NaN,Pass,End of Day 1,Pass,NaN,Pass,NaN,Pass,schedule_B,schedule_B,23,11,4,feedback_l,Zone7,timelimit_screen,2000,NaN,NaN,,NaN,0,1,0,NaN,NaN,1,NaN,NaN,trial_right,blueBox.png,blueBox.png,greenBox.png,al2_uncon.png,43,22,NaN,NaN,0.85,0.15,1,0,0,1,Stable,Stable,3.622,1.319,1.193,1.067,inexpert
113,1671315662787,17/12/2022 22:21:02,1671315660751,0,17/12/2022 22:21:00,109680,37,task-rbyw,repeat-u7ds#1->-repeat-l3h2#1,26007080,BLIND,7681389,NaN,complete,NaN,NaN,computer,Desktop or Laptop,Mac OS 10.15.7,Safari 14.1.2,1440x900,1440x820,End of Day 1,SLS,90,B,NaN,NaN,NaN,Pass,End of Day 1,Pass,NaN,Pass,NaN,Pass,schedule_B,schedule_B,23,11,6,end,Zone1,timelimit_screen,149,NaN,NaN,,NaN,0,1,0,NaN,NaN,1,NaN,NaN,trial_right,blueBox.png,blueBox.png,greenBox.png,al2_uncon.png,43,22,NaN,NaN,0.85,0.15,1,0,0,1,Stable,Stable,3.622,1.319,1.193,1.067,inexpert
114,1671315664056,17/12/2022 22:21:04,1671315662039,0,17/12/2022 22:21:02,109680,37,task-rbyw,repeat-u7ds#1->-repeat-l3h2#1,26007080,BLIND,7681389,NaN,complete,NaN,NaN,computer,Desktop or Laptop,Mac OS 10.15.7,Safari 14.1.2,1440x900,1440x820,End of Day 1,SLS,90,B,NaN,NaN,NaN,Pass,End of Day 1,Pass,NaN,Pass,NaN,Pass,schedule_B,schedule_B,24,12,1,Screen 1,Zone1,continue_button,1270,NaN,NaN,,NaN,0,1,0,NaN,NaN,NaN,NaN,NaN,trial_left,blueBox.png,greenBox.png,blueBox.png,al2_uncon.png,44,23,NaN,NaN,0.85,0.15,1,0,0,0,Stable,Stable,1.731,0.853,2,1.202,inexpert
115,1671315665069,17/12/2022 22:21:05,1671315663036,0,17/12/2022 22:21:03,109680,37,task-rbyw,repeat-u7ds#1->-repeat-l3h2#1,26007080,BLIND,7681389,NaN,complete,NaN,NaN,computer,Desktop or Laptop,Mac OS 10.15.7,Safari 14.1.2,1440x900,1440x820,End of Day 1,SLS,90,B,NaN,NaN,NaN,Pass,End of Day 1,Pass,NaN,Pass,NaN,Pass,schedule_B,schedule_B,24,12,2,individual,Zone4,timelimit_screen,1000,NaN,NaN,,NaN,0,1,0,NaN,NaN,1,NaN,NaN,trial_left,blueBox.png,greenBox.png,blueBox.png,al2_uncon.png,44,23,NaN,NaN,0.85,0.15,1,0,0,0,Stable,Stable,1.731,0.853,2,1.202,inexpert
116,1671315665815,17/12/2022 22:21:05,1671315663796,0,17/12/2022 22:21:03,109680,37,task-rbyw,repeat-u7ds#1->-repeat-l3h2#1,26007080,BLIND,7681389,NaN,complete,NaN,NaN,computer,Desktop or Laptop,Mac OS 10.15.7,Safari 14.1.2,1440x900,1440x820,End of Day 1,SLS,90,B,NaN,NaN,NaN,Pass,End of Day 1,Pass,NaN,Pass,NaN,Pass,schedule_B,schedule_B,24,12,3,offer,Zone2,response_button_image,746.000000000015,NaN,NaN,greenBox.png,1,0,1,0,NaN,NaN,NaN,NaN,NaN,trial_left,blueBox.png,greenBox.png,blueBox.png,al2_uncon.png,44,23,NaN,NaN,0.85,0.15,1,0,0,0,Stable,Stable,1.731,0.853,2,1.202,inexpert
117,1671315667806,17/12/2022 22:21:07,1671315665785,0,17/12/2022 22:21:05,109680,37,task-rbyw,repeat-u7ds#1->-repeat-l3h2#1,26007080,BLIND,7681389,NaN,complete,NaN,NaN,computer,Desktop or Laptop,Mac OS 10.15.7,Safari 14.1.2,1440x900,1440x820,End of Day 1,SLS,90,B,NaN,NaN,NaN,Pass,End of Day 1,Pass,NaN,Pass,NaN,Pass,schedule_B,schedule_B,24,12,4,feedback_l,Zone7,timelimit_screen,1999,NaN,NaN,,NaN,0,1,0,NaN,NaN,1,NaN,NaN,trial_left,blueBox.png,greenBox.png,blueBox.png,al2_uncon.png,44,23,NaN,NaN,0.85,0.15,1,0,0,0,Stable,Stable,1.731,0.853,2,1.202,inexpert
118,1671315667967,17/12/2022 22:21:07,1671315665936,0,17/12/2022 22:21:05,109680,37,task-rbyw,repeat-u7ds#1->-repeat-l3h2#1,26007080,BLIND,7681389,NaN,complete,NaN,NaN,computer,Desktop or Laptop,Mac OS 10.15.7,Safari 14.1.2,1440x900,1440x820,End of Day 1,SLS,90,B,NaN,NaN,NaN,Pass,End of Day 1,Pass,NaN,Pass,NaN,Pass,schedule_B,schedule_B,24,12,6,end,Zone1,timelimit_screen,151,NaN,NaN,,NaN,0,1,0,NaN,NaN,1,NaN,NaN,trial_left,blueBox.png,greenBox.png,blueBox.png,al2_uncon.png,44,23,NaN,NaN,0.85,0.15,1,0,0,0,Stable,Stable,1.731,0.853,2,1.202,inexpert
119,1671315668856,17/12/2022 22:21:08,1671315666833,0,17/12/2022 22:21:06,109680,37,task-rbyw,repeat-u7ds#1->-repeat-l3h2#1,26007080,BLIND,7681389,NaN,complete,NaN,NaN,computer,Desktop or Laptop,Mac OS 10.15.7,Safari 14.1.2,1440x900,1440x820,End of Day 1,SLS,90,B,NaN,NaN,NaN,Pass,End of Day 1,Pass,NaN,Pass,NaN,Pass,schedule_B,schedule_B,25,13,1,Screen 1,Zone1,continue_button,873.999999999985,NaN,NaN,,NaN,0,1,0,NaN,NaN,NaN,NaN,NaN,trial_left,blueBox.png,blueBox.png,greenBox.png,al2_uncon.png,45,24,NaN,NaN,0.85,0.15,1,1,1,1,Stable,Stable,2.109,1.798,1.508,2.782,inexpert
120,1671315669885,17/12/2022 22:21:09,1671315667820,0,17/12/2022 22:21:07,109680,37,task-rbyw,repeat-u7ds#1->-repeat-l3h2#1,26007080,BLIND,7681389,NaN,complete,NaN,NaN,computer,Desktop or Laptop,Mac OS 10.15.7,Safari 14.1.2,1440x900,1440x820,End of Day 1,SLS,90,B,NaN,NaN,NaN,Pass,End of Day 1,Pass,NaN,Pass,NaN,Pass,schedule_B,schedule_B,25,13,2,individual,Zone4,timelimit_screen,1000,NaN,NaN,,NaN,0,1,0,NaN,NaN,1,NaN,NaN,trial_left,blueBox.png,blueBox.png,greenBox.png,al2_uncon.png,45,24,NaN,NaN,0.85,0.15,1,1,1,1,Stable,Stable,2.109,1.798,1.508,2.782,inexpert
121,1671315670770,17/12/2022 22:21:10,1671315668738,0,17/12/2022 22:21:08,109680,37,task-rbyw,repeat-u7ds#1->-repeat-l3h2#1,26007080,BLIND,7681389,NaN,complete,NaN,NaN,computer,Desktop or Laptop,Mac OS 10.15.7,Safari 14.1.2,1440x900,1440x820,End of Day 1,SLS,90,B,NaN,NaN,NaN,Pass,End of Day 1,Pass,NaN,Pass,NaN,Pass,schedule_B,schedule_B,25,13,3,offer,bluebox,response_button_image,906,NaN,NaN,greenBox.png,1,0,1,0,NaN,NaN,NaN,NaN,NaN,trial_left,blueBox.png,blueBox.png,greenBox.png,al2_uncon.png,45,24,NaN,NaN,0.85,0.15,1,1,1,1,Stable,Stable,2.109,1.798,1.508,2.782,inexpert
122,1671315672767,17/12/2022 22:21:12,1671315670736,0,17/12/2022 22:21:10,109680,37,task-rbyw,repeat-u7ds#1->-repeat-l3h2#1,26007080,BLIND,7681389,NaN,complete,NaN,NaN,computer,Desktop or Laptop,Mac OS 10.15.7,Safari 14.1.2,1440x900,1440x820,End of Day 1,SLS,90,B,NaN,NaN,NaN,Pass,End of Day 1,Pass,NaN,Pass,NaN,Pass,schedule_B,schedule_B,25,13,5,feedback_r,Zone7,timelimit_screen,2000,NaN,NaN,,NaN,0,1,0,NaN,NaN,1,NaN,NaN,trial_left,blueBox.png,blueBox.png,greenBox.png,al2_uncon.png,45,24,NaN,NaN,0.85,0.15,1,1,1,1,Stable,Stable,2.109,1.798,1.508,2.782,inexpert
123,1671315672905,17/12/2022 22:21:12,1671315670886,0,17/12/2022 22:21:10,109680,37,task-rbyw,repeat-u7ds#1->-repeat-l3h2#1,26007080,BLIND,7681389,NaN,complete,NaN,NaN,computer,Desktop or Laptop,Mac OS 10.15.7,Safari 14.1.2,1440x900,1440x820,End of Day 1,SLS,90,B,NaN,NaN,NaN,Pass,End of Day 1,Pass,NaN,Pass,NaN,Pass,schedule_B,schedule_B,25,13,6,end,Zone1,timelimit_screen,150,NaN,NaN,,NaN,0,1,0,NaN,NaN,1,NaN,NaN,trial_left,blueBox.png,blueBox.png,greenBox.png,al2_uncon.png,45,24,NaN,NaN,0.85,0.15,1,1,1,1,Stable,Stable,2.109,1.798,1.508,2.782,inexpert
124,1671315673734,17/12/2022 22:21:13,1671315671704,0,17/12/2022 22:21:11,109680,37,task-rbyw,repeat-u7ds#1->-repeat-l3h2#1,26007080,BLIND,7681389,NaN,complete,NaN,NaN,computer,Desktop or Laptop,Mac OS 10.15.7,Safari 14.1.2,1440x900,1440x820,End of Day 1,SLS,90,B,NaN,NaN,NaN,Pass,End of Day 1,Pass,NaN,Pass,NaN,Pass,schedule_B,schedule_B,26,12,1,Screen 1,Zone1,continue_button,802.999999999971,NaN,NaN,,NaN,0,1,0,NaN,NaN,NaN,NaN,NaN,trial_right,blueBox.png,greenBox.png,blueBox.png,al2_uncon.png,46,25,NaN,NaN,0.85,0.15,1,1,1,0,Stable,Stable,2.916,1.294,1.962,2.361,inexpert
125,1671315674709,17/12/2022 22:21:14,1671315672687,0,17/12/2022 22:21:12,109680,37,task-rbyw,repeat-u7ds#1->-repeat-l3h2#1,26007080,BLIND,7681389,NaN,complete,NaN,NaN,computer,Desktop or Laptop,Mac OS 10.15.7,Safari 14.1.2,1440x900,1440x820,End of Day 1,SLS,90,B,NaN,NaN,NaN,Pass,End of Day 1,Pass,NaN,Pass,NaN,Pass,schedule_B,schedule_B,26,12,2,individual,Zone4,timelimit_screen,1000,NaN,NaN,,NaN,0,1,0,NaN,NaN,1,NaN,NaN,trial_right,blueBox.png,greenBox.png,blueBox.png,al2_uncon.png,46,25,NaN,NaN,0.85,0.15,1,1,1,0,Stable,Stable,2.916,1.294,1.962,2.361,inexpert
126,1671315675567,17/12/2022 22:21:15,1671315673553,0,17/12/2022 22:21:13,109680,37,task-rbyw,repeat-u7ds#1->-repeat-l3h2#1,26007080,BLIND,7681389,NaN,complete,NaN,NaN,computer,Desktop or Laptop,Mac OS 10.15.7,Safari 14.1.2,1440x900,1440x820,End of Day 1,SLS,90,B,NaN,NaN,NaN,Pass,End of Day 1,Pass,NaN,Pass,NaN,Pass,schedule_B,schedule_B,26,12,3,offer,Zone2,response_button_image,851,NaN,NaN,greenBox.png,1,0,1,0,NaN,NaN,NaN,NaN,NaN,trial_right,blueBox.png,greenBox.png,blueBox.png,al2_uncon.png,46,25,NaN,NaN,0.85,0.15,1,1,1,0,Stable,Stable,2.916,1.294,1.962,2.361,inexpert
127,1671315677565,17/12/2022 22:21:17,1671315675536,0,17/12/2022 22:21:15,109680,37,task-rbyw,repeat-u7ds#1->-repeat-l3h2#1,26007080,BLIND,7681389,NaN,complete,NaN,NaN,computer,Desktop or Laptop,Mac OS 10.15.7,Safari 14.1.2,1440x900,1440x820,End of Day 1,SLS,90,B,NaN,NaN,NaN,Pass,End of Day 1,Pass,NaN,Pass,NaN,Pass,schedule_B,schedule_B,26,12,4,feedback_l,Zone7,timelimit_screen,2000,NaN,NaN,,NaN,0,1,0,NaN,NaN,1,NaN,NaN,trial_right,blueBox.png,greenBox.png,blueBox.png,al2_uncon.png,46,25,NaN,NaN,0.85,0.15,1,1,1,0,Stable,Stable,2.916,1.294,1.962,2.361,inexpert
128,1671315677705,17/12/2022 22:21:17,1671315675686,0,17/12/2022 22:21:15,109680,37,task-rbyw,repeat-u7ds#1->-repeat-l3h2#1,26007080,BLIND,7681389,NaN,complete,NaN,NaN,computer,Desktop or Laptop,Mac OS 10.15.7,Safari 14.1.2,1440x900,1440x820,End of Day 1,SLS,90,B,NaN,NaN,NaN,Pass,End of Day 1,Pass,NaN,Pass,NaN,Pass,schedule_B,schedule_B,26,12,6,end,Zone1,timelimit_screen,150,NaN,NaN,,NaN,0,1,0,NaN,NaN,1,NaN,NaN,trial_right,blueBox.png,greenBox.png,blueBox.png,al2_uncon.png,46,25,NaN,NaN,0.85,0.15,1,1,1,0,Stable,Stable,2.916,1.294,1.962,2.361,inexpert
129,1671315678502,17/12/2022 22:21:18,1671315676470,0,17/12/2022 22:21:16,109680,37,task-rbyw,repeat-u7ds#1->-repeat-l3h2#1,26007080,BLIND,7681389,NaN,complete,NaN,NaN,computer,Desktop or Laptop,Mac OS 10.15.7,Safari 14.1.2,1440x900,1440x820,End of Day 1,SLS,90,B,NaN,NaN,NaN,Pass,End of Day 1,Pass,NaN,Pass,NaN,Pass,schedule_B,schedule_B,27,13,1,Screen 1,Zone1,continue_button,771,NaN,NaN,,NaN,0,1,0,NaN,NaN,NaN,NaN,NaN,trial_right,blueBox.png,blueBox.png,greenBox.png,al2_uncon.png,47,26,NaN,NaN,0.85,0.15,1,0,0,1,Stable,Stable,2.487,1.697,1.13,1.286,inexpert
130,1671315679477,17/12/2022 22:21:19,1671315677453,0,17/12/2022 22:21:17,109680,37,task-rbyw,repeat-u7ds#1->-repeat-l3h2#1,26007080,BLIND,7681389,NaN,complete,NaN,NaN,computer,Desktop or Laptop,Mac OS 10.15.7,Safari 14.1.2,1440x900,1440x820,End of Day 1,SLS,90,B,NaN,NaN,NaN,Pass,End of Day 1,Pass,NaN,Pass,NaN,Pass,schedule_B,schedule_B,27,13,2,individual,Zone4,timelimit_screen,1001,NaN,NaN,,NaN,0,1,0,NaN,NaN,1,NaN,NaN,trial_right,blueBox.png,blueBox.png,greenBox.png,al2_uncon.png,47,26,NaN,NaN,0.85,0.15,1,0,0,1,Stable,Stable,2.487,1.697,1.13,1.286,inexpert
131,1671315680431,17/12/2022 22:21:20,1671315678397,0,17/12/2022 22:21:18,109680,37,task-rbyw,repeat-u7ds#1->-repeat-l3h2#1,26007080,BLIND,7681389,NaN,complete,NaN,NaN,computer,Desktop or Laptop,Mac OS 10.15.7,Safari 14.1.2,1440x900,1440x820,End of Day 1,SLS,90,B,NaN,NaN,NaN,Pass,End of Day 1,Pass,NaN,Pass,NaN,Pass,schedule_B,schedule_B,27,13,3,offer,Zone3,response_button_image,932,NaN,NaN,greenBox.png,1,0,1,0,NaN,NaN,NaN,NaN,NaN,trial_right,blueBox.png,blueBox.png,greenBox.png,al2_uncon.png,47,26,NaN,NaN,0.85,0.15,1,0,0,1,Stable,Stable,2.487,1.697,1.13,1.286,inexpert
132,1671315682404,17/12/2022 22:21:22,1671315680387,0,17/12/2022 22:21:20,109680,37,task-rbyw,repeat-u7ds#1->-repeat-l3h2#1,26007080,BLIND,7681389,NaN,complete,NaN,NaN,computer,Desktop or Laptop,Mac OS 10.15.7,Safari 14.1.2,1440x900,1440x820,End of Day 1,SLS,90,B,NaN,NaN,NaN,Pass,End of Day 1,Pass,NaN,Pass,NaN,Pass,schedule_B,schedule_B,27,13,5,feedback_r,Zone7,timelimit_screen,2000,NaN,NaN,,NaN,0,1,0,NaN,NaN,1,NaN,NaN,trial_right,blueBox.png,blueBox.png,greenBox.png,al2_uncon.png,47,26,NaN,NaN,0.85,0.15,1,0,0,1,Stable,Stable,2.487,1.697,1.13,1.286,inexpert
133,1671315682576,17/12/2022 22:21:22,1671315680536,0,17/12/2022 22:21:20,109680,37,task-rbyw,repeat-u7ds#1->-repeat-l3h2#1,26007080,BLIND,7681389,NaN,complete,NaN,NaN,computer,Desktop or Laptop,Mac OS 10.15.7,Safari 14.1.2,1440x900,1440x820,End of Day 1,SLS,90,B,NaN,NaN,NaN,Pass,End of Day 1,Pass,NaN,Pass,NaN,Pass,schedule_B,schedule_B,27,13,6,end,Zone1,timelimit_screen,151,NaN,NaN,,NaN,0,1,0,NaN,NaN,1,NaN,NaN,trial_right,blueBox.png,blueBox.png,greenBox.png,al2_uncon.png,47,26,NaN,NaN,0.85,0.15,1,0,0,1,Stable,Stable,2.487,1.697,1.13,1.286,inexpert
134,1671315683336,17/12/2022 22:21:23,1671315681309,0,17/12/2022 22:21:21,109680,37,task-rbyw,repeat-u7ds#1->-repeat-l3h2#1,26007080,BLIND,7681389,NaN,complete,NaN,NaN,computer,Desktop or Laptop,Mac OS 10.15.7,Safari 14.1.2,1440x900,1440x820,End of Day 1,SLS,90,B,NaN,NaN,NaN,Pass,End of Day 1,Pass,NaN,Pass,NaN,Pass,schedule_B,schedule_B,28,14,1,Screen 1,Zone1,continue_button,749,NaN,NaN,,NaN,0,1,0,NaN,NaN,NaN,NaN,NaN,trial_left,blueBox.png,greenBox.png,blueBox.png,al2_uncon.png,48,27,NaN,NaN,0.85,0.15,1,0,0,0,Stable,Stable,3.824,1.634,0.992,2.244,inexpert
135,1671315684327,17/12/2022 22:21:24,1671315682303,0,17/12/2022 22:21:22,109680,37,task-rbyw,repeat-u7ds#1->-repeat-l3h2#1,26007080,BLIND,7681389,NaN,complete,NaN,NaN,computer,Desktop or Laptop,Mac OS 10.15.7,Safari 14.1.2,1440x900,1440x820,End of Day 1,SLS,90,B,NaN,NaN,NaN,Pass,End of Day 1,Pass,NaN,Pass,NaN,Pass,schedule_B,schedule_B,28,14,2,individual,Zone4,timelimit_screen,1001,NaN,NaN,,NaN,0,1,0,NaN,NaN,1,NaN,NaN,trial_left,blueBox.png,greenBox.png,blueBox.png,al2_uncon.png,48,27,NaN,NaN,0.85,0.15,1,0,0,0,Stable,Stable,3.824,1.634,0.992,2.244,inexpert
136,1671315685681,17/12/2022 22:21:25,1671315683660,0,17/12/2022 22:21:23,109680,37,task-rbyw,repeat-u7ds#1->-repeat-l3h2#1,26007080,BLIND,7681389,NaN,complete,NaN,NaN,computer,Desktop or Laptop,Mac OS 10.15.7,Safari 14.1.2,1440x900,1440x820,End of Day 1,SLS,90,B,NaN,NaN,NaN,Pass,End of Day 1,Pass,NaN,Pass,NaN,Pass,schedule_B,schedule_B,28,14,3,offer,Zone2,response_button_image,1343,NaN,NaN,greenBox.png,1,0,1,0,NaN,NaN,NaN,NaN,NaN,trial_left,blueBox.png,greenBox.png,blueBox.png,al2_uncon.png,48,27,NaN,NaN,0.85,0.15,1,0,0,0,Stable,Stable,3.824,1.634,0.992,2.244,inexpert
137,1671315687688,17/12/2022 22:21:27,1671315685654,0,17/12/2022 22:21:25,109680,37,task-rbyw,repeat-u7ds#1->-repeat-l3h2#1,26007080,BLIND,7681389,NaN,complete,NaN,NaN,computer,Desktop or Laptop,Mac OS 10.15.7,Safari 14.1.2,1440x900,1440x820,End of Day 1,SLS,90,B,NaN,NaN,NaN,Pass,End of Day 1,Pass,NaN,Pass,NaN,Pass,schedule_B,schedule_B,28,14,4,feedback_l,Zone7,timelimit_screen,2000,NaN,NaN,,NaN,0,1,0,NaN,NaN,1,NaN,NaN,trial_left,blueBox.png,greenBox.png,blueBox.png,al2_uncon.png,48,27,NaN,NaN,0.85,0.15,1,0,0,0,Stable,Stable,3.824,1.634,0.992,2.244,inexpert
138,1671315687831,17/12/2022 22:21:27,1671315685803,0,17/12/2022 22:21:25,109680,37,task-rbyw,repeat-u7ds#1->-repeat-l3h2#1,26007080,BLIND,7681389,NaN,complete,NaN,NaN,computer,Desktop or Laptop,Mac OS 10.15.7,Safari 14.1.2,1440x900,1440x820,End of Day 1,SLS,90,B,NaN,NaN,NaN,Pass,End of Day 1,Pass,NaN,Pass,NaN,Pass,schedule_B,schedule_B,28,14,6,end,Zone1,timelimit_screen,150,NaN,NaN,,NaN,0,1,0,NaN,NaN,1,NaN,NaN,trial_left,blueBox.png,greenBox.png,blueBox.png,al2_uncon.png,48,27,NaN,NaN,0.85,0.15,1,0,0,0,Stable,Stable,3.824,1.634,0.992,2.244,inexpert
139,1671315688671,17/12/2022 22:21:28,1671315686650,0,17/12/2022 22:21:26,109680,37,task-rbyw,repeat-u7ds#1->-repeat-l3h2#1,26007080,BLIND,7681389,NaN,complete,NaN,NaN,computer,Desktop or Laptop,Mac OS 10.15.7,Safari 14.1.2,1440x900,1440x820,End of Day 1,SLS,90,B,NaN,NaN,NaN,Pass,End of Day 1,Pass,NaN,Pass,NaN,Pass,schedule_B,schedule_B,29,14,1,Screen 1,Zone1,continue_button,823,NaN,NaN,,NaN,0,1,0,NaN,NaN,NaN,NaN,NaN,trial_right,blueBox.png,blueBox.png,greenBox.png,al2_uncon.png,49,28,NaN,NaN,0.85,0.15,1,0,0,1,Stable,Stable,2.84,1.937,1.723,2.815,inexpert
140,1671315689678,17/12/2022 22:21:29,1671315687636,0,17/12/2022 22:21:27,109680,37,task-rbyw,repeat-u7ds#1->-repeat-l3h2#1,26007080,BLIND,7681389,NaN,complete,NaN,NaN,computer,Desktop or Laptop,Mac OS 10.15.7,Safari 14.1.2,1440x900,1440x820,End of Day 1,SLS,90,B,NaN,NaN,NaN,Pass,End of Day 1,Pass,NaN,Pass,NaN,Pass,schedule_B,schedule_B,29,14,2,individual,Zone4,timelimit_screen,1000,NaN,NaN,,NaN,0,1,0,NaN,NaN,1,NaN,NaN,trial_right,blueBox.png,blueBox.png,greenBox.png,al2_uncon.png,49,28,NaN,NaN,0.85,0.15,1,0,0,1,Stable,Stable,2.84,1.937,1.723,2.815,inexpert
141,1671315690470,17/12/2022 22:21:30,1671315688447,0,17/12/2022 22:21:28,109680,37,task-rbyw,repeat-u7ds#1->-repeat-l3h2#1,26007080,BLIND,7681389,NaN,complete,NaN,NaN,computer,Desktop or Laptop,Mac OS 10.15.7,Safari 14.1.2,1440x900,1440x820,End of Day 1,SLS,90,B,NaN,NaN,NaN,Pass,End of Day 1,Pass,NaN,Pass,NaN,Pass,schedule_B,schedule_B,29,14,3,offer,Zone2,response_button_image,798,NaN,NaN,blueBox.png,1,1,0,0,NaN,NaN,NaN,NaN,NaN,trial_right,blueBox.png,blueBox.png,greenBox.png,al2_uncon.png,49,28,NaN,NaN,0.85,0.15,1,0,0,1,Stable,Stable,2.84,1.937,1.723,2.815,inexpert
142,1671315692468,17/12/2022 22:21:32,1671315690437,0,17/12/2022 22:21:30,109680,37,task-rbyw,repeat-u7ds#1->-repeat-l3h2#1,26007080,BLIND,7681389,NaN,complete,NaN,NaN,computer,Desktop or Laptop,Mac OS 10.15.7,Safari 14.1.2,1440x900,1440x820,End of Day 1,SLS,90,B,NaN,NaN,NaN,Pass,End of Day 1,Pass,NaN,Pass,NaN,Pass,schedule_B,schedule_B,29,14,4,feedback_l,Zone7,timelimit_screen,2000,NaN,NaN,,NaN,0,1,0,NaN,NaN,1,NaN,NaN,trial_right,blueBox.png,blueBox.png,greenBox.png,al2_uncon.png,49,28,NaN,NaN,0.85,0.15,1,0,0,1,Stable,Stable,2.84,1.937,1.723,2.815,inexpert
143,1671315692622,17/12/2022 22:21:32,1671315690586,0,17/12/2022 22:21:30,109680,37,task-rbyw,repeat-u7ds#1->-repeat-l3h2#1,26007080,BLIND,7681389,NaN,complete,NaN,NaN,computer,Desktop or Laptop,Mac OS 10.15.7,Safari 14.1.2,1440x900,1440x820,End of Day 1,SLS,90,B,NaN,NaN,NaN,Pass,End of Day 1,Pass,NaN,Pass,NaN,Pass,schedule_B,schedule_B,29,14,6,end,Zone1,timelimit_screen,150,NaN,NaN,,NaN,0,1,0,NaN,NaN,1,NaN,NaN,trial_right,blueBox.png,blueBox.png,greenBox.png,al2_uncon.png,49,28,NaN,NaN,0.85,0.15,1,0,0,1,Stable,Stable,2.84,1.937,1.723,2.815,inexpert
144,1671315693490,17/12/2022 22:21:33,1671315691462,0,17/12/2022 22:21:31,109680,37,task-rbyw,repeat-u7ds#1->-repeat-l3h2#1,26007080,BLIND,7681389,NaN,complete,NaN,NaN,computer,Desktop or Laptop,Mac OS 10.15.7,Safari 14.1.2,1440x900,1440x820,End of Day 1,SLS,90,B,NaN,NaN,NaN,Pass,End of Day 1,Pass,NaN,Pass,NaN,Pass,schedule_B,schedule_B,30,15,1,Screen 1,Zone1,continue_button,851,NaN,NaN,,NaN,0,1,0,NaN,NaN,NaN,NaN,NaN,trial_right,blueBox.png,blueBox.png,greenBox.png,al2_uncon.png,50,29,NaN,NaN,0.85,0.15,1,0,0,1,Stable,Stable,2.941,1.71,0.664,1.336,inexpert
145,1671315694487,17/12/2022 22:21:34,1671315692454,0,17/12/2022 22:21:32,109680,37,task-rbyw,repeat-u7ds#1->-repeat-l3h2#1,26007080,BLIND,7681389,NaN,complete,NaN,NaN,computer,Desktop or Laptop,Mac OS 10.15.7,Safari 14.1.2,1440x900,1440x820,End of Day 1,SLS,90,B,NaN,NaN,NaN,Pass,End of Day 1,Pass,NaN,Pass,NaN,Pass,schedule_B,schedule_B,30,15,2,individual,Zone4,timelimit_screen,1000,NaN,NaN,,NaN,0,1,0,NaN,NaN,1,NaN,NaN,trial_right,blueBox.png,blueBox.png,greenBox.png,al2_uncon.png,50,29,NaN,NaN,0.85,0.15,1,0,0,1,Stable,Stable,2.941,1.71,0.664,1.336,inexpert
146,1671315695312,17/12/2022 22:21:35,1671315693284,0,17/12/2022 22:21:33,109680,37,task-rbyw,repeat-u7ds#1->-repeat-l3h2#1,26007080,BLIND,7681389,NaN,complete,NaN,NaN,computer,Desktop or Laptop,Mac OS 10.15.7,Safari 14.1.2,1440x900,1440x820,End of Day 1,SLS,90,B,NaN,NaN,NaN,Pass,End of Day 1,Pass,NaN,Pass,NaN,Pass,schedule_B,schedule_B,30,15,3,offer,Zone2,response_button_image,817,NaN,NaN,blueBox.png,1,1,0,0,NaN,NaN,NaN,NaN,NaN,trial_right,blueBox.png,blueBox.png,greenBox.png,al2_uncon.png,50,29,NaN,NaN,0.85,0.15,1,0,0,1,Stable,Stable,2.941,1.71,0.664,1.336,inexpert
147,1671315697300,17/12/2022 22:21:37,1671315695270,0,17/12/2022 22:21:35,109680,37,task-rbyw,repeat-u7ds#1->-repeat-l3h2#1,26007080,BLIND,7681389,NaN,complete,NaN,NaN,computer,Desktop or Laptop,Mac OS 10.15.7,Safari 14.1.2,1440x900,1440x820,End of Day 1,SLS,90,B,NaN,NaN,NaN,Pass,End of Day 1,Pass,NaN,Pass,NaN,Pass,schedule_B,schedule_B,30,15,4,feedback_l,Zone7,timelimit_screen,2000,NaN,NaN,,NaN,0,1,0,NaN,NaN,1,NaN,NaN,trial_right,blueBox.png,blueBox.png,greenBox.png,al2_uncon.png,50,29,NaN,NaN,0.85,0.15,1,0,0,1,Stable,Stable,2.941,1.71,0.664,1.336,inexpert
148,1671315697455,17/12/2022 22:21:37,1671315695419,0,17/12/2022 22:21:35,109680,37,task-rbyw,repeat-u7ds#1->-repeat-l3h2#1,26007080,BLIND,7681389,NaN,complete,NaN,NaN,computer,Desktop or Laptop,Mac OS 10.15.7,Safari 14.1.2,1440x900,1440x820,End of Day 1,SLS,90,B,NaN,NaN,NaN,Pass,End of Day 1,Pass,NaN,Pass,NaN,Pass,schedule_B,schedule_B,30,15,6,end,Zone1,timelimit_screen,150,NaN,NaN,,NaN,0,1,0,NaN,NaN,1,NaN,NaN,trial_right,blueBox.png,blueBox.png,greenBox.png,al2_uncon.png,50,29,NaN,NaN,0.85,0.15,1,0,0,1,Stable,Stable,2.941,1.71,0.664,1.336,inexpert
149,1671315698479,17/12/2022 22:21:38,1671315696457,0,17/12/2022 22:21:36,109680,37,task-rbyw,repeat-u7ds#1->-repeat-l3h2#1,26007080,BLIND,7681389,NaN,complete,NaN,NaN,computer,Desktop or Laptop,Mac OS 10.15.7,Safari 14.1.2,1440x900,1440x820,End of Day 1,SLS,90,B,NaN,NaN,NaN,Pass,End of Day 1,Pass,NaN,Pass,NaN,Pass,schedule_B,schedule_B,31,15,1,Screen 1,Zone1,continue_button,1015,NaN,NaN,,NaN,0,1,0,NaN,NaN,NaN,NaN,NaN,trial_left,blueBox.png,greenBox.png,blueBox.png,al2_uncon.png,61,30,NaN,NaN,0.85,0.15,1,0,0,0,Stable,Stable,2.79,1.735,0.601,2.345,inexpert
150,1671315699491,17/12/2022 22:21:39,1671315697453,0,17/12/2022 22:21:37,109680,37,task-rbyw,repeat-u7ds#1->-repeat-l3h2#1,26007080,BLIND,7681389,NaN,complete,NaN,NaN,computer,Desktop or Laptop,Mac OS 10.15.7,Safari 14.1.2,1440x900,1440x820,End of Day 1,SLS,90,B,NaN,NaN,NaN,Pass,End of Day 1,Pass,NaN,Pass,NaN,Pass,schedule_B,schedule_B,31,15,2,individual,Zone4,timelimit_screen,1000,NaN,NaN,,NaN,0,1,0,NaN,NaN,1,NaN,NaN,trial_left,blueBox.png,greenBox.png,blueBox.png,al2_uncon.png,61,30,NaN,NaN,0.85,0.15,1,0,0,0,Stable,Stable,2.79,1.735,0.601,2.345,inexpert
151,1671315701221,17/12/2022 22:21:41,1671315699186,0,17/12/2022 22:21:39,109680,37,task-rbyw,repeat-u7ds#1->-repeat-l3h2#1,26007080,BLIND,7681389,NaN,complete,NaN,NaN,computer,Desktop or Laptop,Mac OS 10.15.7,Safari 14.1.2,1440x900,1440x820,End of Day 1,SLS,90,B,NaN,NaN,NaN,Pass,End of Day 1,Pass,NaN,Pass,NaN,Pass,schedule_B,schedule_B,31,15,3,offer,bluebox,response_button_image,1719,NaN,NaN,blueBox.png,1,1,0,0,NaN,NaN,NaN,NaN,NaN,trial_left,blueBox.png,greenBox.png,blueBox.png,al2_uncon.png,61,30,NaN,NaN,0.85,0.15,1,0,0,0,Stable,Stable,2.79,1.735,0.601,2.345,inexpert
152,1671315703197,17/12/2022 22:21:43,1671315701169,0,17/12/2022 22:21:41,109680,37,task-rbyw,repeat-u7ds#1->-repeat-l3h2#1,26007080,BLIND,7681389,NaN,complete,NaN,NaN,computer,Desktop or Laptop,Mac OS 10.15.7,Safari 14.1.2,1440x900,1440x820,End of Day 1,SLS,90,B,NaN,NaN,NaN,Pass,End of Day 1,Pass,NaN,Pass,NaN,Pass,schedule_B,schedule_B,31,15,5,feedback_r,Zone7,timelimit_screen,2000,NaN,NaN,,NaN,0,1,0,NaN,NaN,1,NaN,NaN,trial_left,blueBox.png,greenBox.png,blueBox.png,al2_uncon.png,61,30,NaN,NaN,0.85,0.15,1,0,0,0,Stable,Stable,2.79,1.735,0.601,2.345,inexpert
153,1671315703351,17/12/2022 22:21:43,1671315701320,0,17/12/2022 22:21:41,109680,37,task-rbyw,repeat-u7ds#1->-repeat-l3h2#1,26007080,BLIND,7681389,NaN,complete,NaN,NaN,computer,Desktop or Laptop,Mac OS 10.15.7,Safari 14.1.2,1440x900,1440x820,End of Day 1,SLS,90,B,NaN,NaN,NaN,Pass,End of Day 1,Pass,NaN,Pass,NaN,Pass,schedule_B,schedule_B,31,15,6,end,Zone1,timelimit_screen,150,NaN,NaN,,NaN,0,1,0,NaN,NaN,1,NaN,NaN,trial_left,blueBox.png,greenBox.png,blueBox.png,al2_uncon.png,61,30,NaN,NaN,0.85,0.15,1,0,0,0,Stable,Stable,2.79,1.735,0.601,2.345,inexpert
154,1671315704175,17/12/2022 22:21:44,1671315702145,0,17/12/2022 22:21:42,109680,37,task-rbyw,repeat-u7ds#1->-repeat-l3h2#1,26007080,BLIND,7681389,NaN,complete,NaN,NaN,computer,Desktop or Laptop,Mac OS 10.15.7,Safari 14.1.2,1440x900,1440x820,End of Day 1,SLS,90,B,NaN,NaN,NaN,Pass,End of Day 1,Pass,NaN,Pass,NaN,Pass,schedule_B,schedule_B,32,16,1,Screen 1,Zone1,continue_button,800.000000000029,NaN,NaN,,NaN,0,1,0,NaN,NaN,NaN,NaN,NaN,trial_right,blueBox.png,greenBox.png,blueBox.png,al2_uncon.png,62,31,NaN,NaN,0.85,0.85,1,1,1,0,Volatile,Volatile,2.538,1.672,1.143,1.555,inexpert
155,1671315705163,17/12/2022 22:21:45,1671315703137,0,17/12/2022 22:21:43,109680,37,task-rbyw,repeat-u7ds#1->-repeat-l3h2#1,26007080,BLIND,7681389,NaN,complete,NaN,NaN,computer,Desktop or Laptop,Mac OS 10.15.7,Safari 14.1.2,1440x900,1440x820,End of Day 1,SLS,90,B,NaN,NaN,NaN,Pass,End of Day 1,Pass,NaN,Pass,NaN,Pass,schedule_B,schedule_B,32,16,2,individual,Zone4,timelimit_screen,1000,NaN,NaN,,NaN,0,1,0,NaN,NaN,1,NaN,NaN,trial_right,blueBox.png,greenBox.png,blueBox.png,al2_uncon.png,62,31,NaN,NaN,0.85,0.85,1,1,1,0,Volatile,Volatile,2.538,1.672,1.143,1.555,inexpert
156,1671315705958,17/12/2022 22:21:45,1671315703928,0,17/12/2022 22:21:43,109680,37,task-rbyw,repeat-u7ds#1->-repeat-l3h2#1,26007080,BLIND,7681389,NaN,complete,NaN,NaN,computer,Desktop or Laptop,Mac OS 10.15.7,Safari 14.1.2,1440x900,1440x820,End of Day 1,SLS,90,B,NaN,NaN,NaN,Pass,End of Day 1,Pass,NaN,Pass,NaN,Pass,schedule_B,schedule_B,32,16,3,offer,Zone2,response_button_image,778,NaN,NaN,greenBox.png,1,0,1,0,NaN,NaN,NaN,NaN,NaN,trial_right,blueBox.png,greenBox.png,blueBox.png,al2_uncon.png,62,31,NaN,NaN,0.85,0.85,1,1,1,0,Volatile,Volatile,2.538,1.672,1.143,1.555,inexpert
157,1671315707943,17/12/2022 22:21:47,1671315705919,0,17/12/2022 22:21:45,109680,37,task-rbyw,repeat-u7ds#1->-repeat-l3h2#1,26007080,BLIND,7681389,NaN,complete,NaN,NaN,computer,Desktop or Laptop,Mac OS 10.15.7,Safari 14.1.2,1440x900,1440x820,End of Day 1,SLS,90,B,NaN,NaN,NaN,Pass,End of Day 1,Pass,NaN,Pass,NaN,Pass,schedule_B,schedule_B,32,16,4,feedback_l,Zone7,timelimit_screen,1999,NaN,NaN,,NaN,0,1,0,NaN,NaN,1,NaN,NaN,trial_right,blueBox.png,greenBox.png,blueBox.png,al2_uncon.png,62,31,NaN,NaN,0.85,0.85,1,1,1,0,Volatile,Volatile,2.538,1.672,1.143,1.555,inexpert
158,1671315708102,17/12/2022 22:21:48,1671315706070,0,17/12/2022 22:21:46,109680,37,task-rbyw,repeat-u7ds#1->-repeat-l3h2#1,26007080,BLIND,7681389,NaN,complete,NaN,NaN,computer,Desktop or Laptop,Mac OS 10.15.7,Safari 14.1.2,1440x900,1440x820,End of Day 1,SLS,90,B,NaN,NaN,NaN,Pass,End of Day 1,Pass,NaN,Pass,NaN,Pass,schedule_B,schedule_B,32,16,6,end,Zone1,timelimit_screen,151,NaN,NaN,,NaN,0,1,0,NaN,NaN,1,NaN,NaN,trial_right,blueBox.png,greenBox.png,blueBox.png,al2_uncon.png,62,31,NaN,NaN,0.85,0.85,1,1,1,0,Volatile,Volatile,2.538,1.672,1.143,1.555,inexpert
159,1671315709340,17/12/2022 22:21:49,1671315707315,0,17/12/2022 22:21:47,109680,37,task-rbyw,repeat-u7ds#1->-repeat-l3h2#1,26007080,BLIND,7681389,NaN,complete,NaN,NaN,computer,Desktop or Laptop,Mac OS 10.15.7,Safari 14.1.2,1440x900,1440x820,End of Day 1,SLS,90,B,NaN,NaN,NaN,Pass,End of Day 1,Pass,NaN,Pass,NaN,Pass,schedule_B,schedule_B,33,16,1,Screen 1,Zone1,continue_button,1224,NaN,NaN,,NaN,0,1,0,NaN,NaN,NaN,NaN,NaN,trial_left,blueBox.png,greenBox.png,blueBox.png,al2_uncon.png,63,32,NaN,NaN,0.85,0.85,1,0,0,0,Volatile,Volatile,2.739,1.13,0.815,1.387,inexpert
160,1671315710339,17/12/2022 22:21:50,1671315708303,0,17/12/2022 22:21:48,109680,37,task-rbyw,repeat-u7ds#1->-repeat-l3h2#1,26007080,BLIND,7681389,NaN,complete,NaN,NaN,computer,Desktop or Laptop,Mac OS 10.15.7,Safari 14.1.2,1440x900,1440x820,End of Day 1,SLS,90,B,NaN,NaN,NaN,Pass,End of Day 1,Pass,NaN,Pass,NaN,Pass,schedule_B,schedule_B,33,16,2,individual,Zone4,timelimit_screen,1000,NaN,NaN,,NaN,0,1,0,NaN,NaN,1,NaN,NaN,trial_left,blueBox.png,greenBox.png,blueBox.png,al2_uncon.png,63,32,NaN,NaN,0.85,0.85,1,0,0,0,Volatile,Volatile,2.739,1.13,0.815,1.387,inexpert
161,1671315711073,17/12/2022 22:21:51,1671315709025,0,17/12/2022 22:21:49,109680,37,task-rbyw,repeat-u7ds#1->-repeat-l3h2#1,26007080,BLIND,7681389,NaN,complete,NaN,NaN,computer,Desktop or Laptop,Mac OS 10.15.7,Safari 14.1.2,1440x900,1440x820,End of Day 1,SLS,90,B,NaN,NaN,NaN,Pass,End of Day 1,Pass,NaN,Pass,NaN,Pass,schedule_B,schedule_B,33,16,3,offer,Zone2,response_button_image,711.000000000029,NaN,NaN,greenBox.png,1,0,1,0,NaN,NaN,NaN,NaN,NaN,trial_left,blueBox.png,greenBox.png,blueBox.png,al2_uncon.png,63,32,NaN,NaN,0.85,0.85,1,0,0,0,Volatile,Volatile,2.739,1.13,0.815,1.387,inexpert
162,1671315713055,17/12/2022 22:21:53,1671315711020,0,17/12/2022 22:21:51,109680,37,task-rbyw,repeat-u7ds#1->-repeat-l3h2#1,26007080,BLIND,7681389,NaN,complete,NaN,NaN,computer,Desktop or Laptop,Mac OS 10.15.7,Safari 14.1.2,1440x900,1440x820,End of Day 1,SLS,90,B,NaN,NaN,NaN,Pass,End of Day 1,Pass,NaN,Pass,NaN,Pass,schedule_B,schedule_B,33,16,4,feedback_l,Zone7,timelimit_screen,2000,NaN,NaN,,NaN,0,1,0,NaN,NaN,1,NaN,NaN,trial_left,blueBox.png,greenBox.png,blueBox.png,al2_uncon.png,63,32,NaN,NaN,0.85,0.85,1,0,0,0,Volatile,Volatile,2.739,1.13,0.815,1.387,inexpert
163,1671315713199,17/12/2022 22:21:53,1671315711170,0,17/12/2022 22:21:51,109680,37,task-rbyw,repeat-u7ds#1->-repeat-l3h2#1,26007080,BLIND,7681389,NaN,complete,NaN,NaN,computer,Desktop or Laptop,Mac OS 10.15.7,Safari 14.1.2,1440x900,1440x820,End of Day 1,SLS,90,B,NaN,NaN,NaN,Pass,End of Day 1,Pass,NaN,Pass,NaN,Pass,schedule_B,schedule_B,33,16,6,end,Zone1,timelimit_screen,150,NaN,NaN,,NaN,0,1,0,NaN,NaN,1,NaN,NaN,trial_left,blueBox.png,greenBox.png,blueBox.png,al2_uncon.png,63,32,NaN,NaN,0.85,0.85,1,0,0,0,Volatile,Volatile,2.739,1.13,0.815,1.387,inexpert
164,1671315714386,17/12/2022 22:21:54,1671315712348,0,17/12/2022 22:21:52,109680,37,task-rbyw,repeat-u7ds#1->-repeat-l3h2#1,26007080,BLIND,7681389,NaN,complete,NaN,NaN,computer,Desktop or Laptop,Mac OS 10.15.7,Safari 14.1.2,1440x900,1440x820,End of Day 1,SLS,90,B,NaN,NaN,NaN,Pass,End of Day 1,Pass,NaN,Pass,NaN,Pass,schedule_B,schedule_B,34,17,1,Screen 1,Zone1,continue_button,1155,NaN,NaN,,NaN,0,1,0,NaN,NaN,NaN,NaN,NaN,trial_left,blueBox.png,blueBox.png,greenBox.png,al2_uncon.png,64,33,NaN,NaN,0.85,0.85,1,1,1,1,Volatile,Volatile,3.672,0.828,0.513,2.059,inexpert
165,1671315715358,17/12/2022 22:21:55,1671315713335,0,17/12/2022 22:21:53,109680,37,task-rbyw,repeat-u7ds#1->-repeat-l3h2#1,26007080,BLIND,7681389,NaN,complete,NaN,NaN,computer,Desktop or Laptop,Mac OS 10.15.7,Safari 14.1.2,1440x900,1440x820,End of Day 1,SLS,90,B,NaN,NaN,NaN,Pass,End of Day 1,Pass,NaN,Pass,NaN,Pass,schedule_B,schedule_B,34,17,2,individual,Zone4,timelimit_screen,999,NaN,NaN,,NaN,0,1,0,NaN,NaN,1,NaN,NaN,trial_left,blueBox.png,blueBox.png,greenBox.png,al2_uncon.png,64,33,NaN,NaN,0.85,0.85,1,1,1,1,Volatile,Volatile,3.672,0.828,0.513,2.059,inexpert
166,1671315716763,17/12/2022 22:21:56,1671315714729,0,17/12/2022 22:21:54,109680,37,task-rbyw,repeat-u7ds#1->-repeat-l3h2#1,26007080,BLIND,7681389,NaN,complete,NaN,NaN,computer,Desktop or Laptop,Mac OS 10.15.7,Safari 14.1.2,1440x900,1440x820,End of Day 1,SLS,90,B,NaN,NaN,NaN,Pass,End of Day 1,Pass,NaN,Pass,NaN,Pass,schedule_B,schedule_B,34,17,3,offer,bluebox,response_button_image,1387,NaN,NaN,greenBox.png,1,0,1,0,NaN,NaN,NaN,NaN,NaN,trial_left,blueBox.png,blueBox.png,greenBox.png,al2_uncon.png,64,33,NaN,NaN,0.85,0.85,1,1,1,1,Volatile,Volatile,3.672,0.828,0.513,2.059,inexpert
167,1671315718737,17/12/2022 22:21:58,1671315716720,0,17/12/2022 22:21:56,109680,37,task-rbyw,repeat-u7ds#1->-repeat-l3h2#1,26007080,BLIND,7681389,NaN,complete,NaN,NaN,computer,Desktop or Laptop,Mac OS 10.15.7,Safari 14.1.2,1440x900,1440x820,End of Day 1,SLS,90,B,NaN,NaN,NaN,Pass,End of Day 1,Pass,NaN,Pass,NaN,Pass,schedule_B,schedule_B,34,17,5,feedback_r,Zone7,timelimit_screen,2000,NaN,NaN,,NaN,0,1,0,NaN,NaN,1,NaN,NaN,trial_left,blueBox.png,blueBox.png,greenBox.png,al2_uncon.png,64,33,NaN,NaN,0.85,0.85,1,1,1,1,Volatile,Volatile,3.672,0.828,0.513,2.059,inexpert
168,1671315718900,17/12/2022 22:21:58,1671315716869,0,17/12/2022 22:21:56,109680,37,task-rbyw,repeat-u7ds#1->-repeat-l3h2#1,26007080,BLIND,7681389,NaN,complete,NaN,NaN,computer,Desktop or Laptop,Mac OS 10.15.7,Safari 14.1.2,1440x900,1440x820,End of Day 1,SLS,90,B,NaN,NaN,NaN,Pass,End of Day 1,Pass,NaN,Pass,NaN,Pass,schedule_B,schedule_B,34,17,6,end,Zone1,timelimit_screen,150,NaN,NaN,,NaN,0,1,0,NaN,NaN,1,NaN,NaN,trial_left,blueBox.png,blueBox.png,greenBox.png,al2_uncon.png,64,33,NaN,NaN,0.85,0.85,1,1,1,1,Volatile,Volatile,3.672,0.828,0.513,2.059,inexpert
169,1671315719703,17/12/2022 22:21:59,1671315717680,0,17/12/2022 22:21:57,109680,37,task-rbyw,repeat-u7ds#1->-repeat-l3h2#1,26007080,BLIND,7681389,NaN,complete,NaN,NaN,computer,Desktop or Laptop,Mac OS 10.15.7,Safari 14.1.2,1440x900,1440x820,End of Day 1,SLS,90,B,NaN,NaN,NaN,Pass,End of Day 1,Pass,NaN,Pass,NaN,Pass,schedule_B,schedule_B,35,18,1,Screen 1,Zone1,continue_button,794,NaN,NaN,,NaN,0,1,0,NaN,NaN,NaN,NaN,NaN,trial_left,blueBox.png,blueBox.png,greenBox.png,al2_uncon.png,65,34,NaN,NaN,0.85,0.85,1,1,1,1,Volatile,Volatile,2.261,0.866,1.811,2.849,inexpert
170,1671315720696,17/12/2022 22:22:00,1671315718670,0,17/12/2022 22:21:58,109680,37,task-rbyw,repeat-u7ds#1->-repeat-l3h2#1,26007080,BLIND,7681389,NaN,complete,NaN,NaN,computer,Desktop or Laptop,Mac OS 10.15.7,Safari 14.1.2,1440x900,1440x820,End of Day 1,SLS,90,B,NaN,NaN,NaN,Pass,End of Day 1,Pass,NaN,Pass,NaN,Pass,schedule_B,schedule_B,35,18,2,individual,Zone4,timelimit_screen,1000,NaN,NaN,,NaN,0,1,0,NaN,NaN,1,NaN,NaN,trial_left,blueBox.png,blueBox.png,greenBox.png,al2_uncon.png,65,34,NaN,NaN,0.85,0.85,1,1,1,1,Volatile,Volatile,2.261,0.866,1.811,2.849,inexpert
171,1671315721658,17/12/2022 22:22:01,1671315719634,0,17/12/2022 22:21:59,109680,37,task-rbyw,repeat-u7ds#1->-repeat-l3h2#1,26007080,BLIND,7681389,NaN,complete,NaN,NaN,computer,Desktop or Laptop,Mac OS 10.15.7,Safari 14.1.2,1440x900,1440x820,End of Day 1,SLS,90,B,NaN,NaN,NaN,Pass,End of Day 1,Pass,NaN,Pass,NaN,Pass,schedule_B,schedule_B,35,18,3,offer,bluebox,response_button_image,950,NaN,NaN,greenBox.png,1,0,1,0,NaN,NaN,NaN,NaN,NaN,trial_left,blueBox.png,blueBox.png,greenBox.png,al2_uncon.png,65,34,NaN,NaN,0.85,0.85,1,1,1,1,Volatile,Volatile,2.261,0.866,1.811,2.849,inexpert
172,1671315723649,17/12/2022 22:22:03,1671315721620,0,17/12/2022 22:22:01,109680,37,task-rbyw,repeat-u7ds#1->-repeat-l3h2#1,26007080,BLIND,7681389,NaN,complete,NaN,NaN,computer,Desktop or Laptop,Mac OS 10.15.7,Safari 14.1.2,1440x900,1440x820,End of Day 1,SLS,90,B,NaN,NaN,NaN,Pass,End of Day 1,Pass,NaN,Pass,NaN,Pass,schedule_B,schedule_B,35,18,5,feedback_r,Zone7,timelimit_screen,2000,NaN,NaN,,NaN,0,1,0,NaN,NaN,1,NaN,NaN,trial_left,blueBox.png,blueBox.png,greenBox.png,al2_uncon.png,65,34,NaN,NaN,0.85,0.85,1,1,1,1,Volatile,Volatile,2.261,0.866,1.811,2.849,inexpert
173,1671315723802,17/12/2022 22:22:03,1671315721770,0,17/12/2022 22:22:01,109680,37,task-rbyw,repeat-u7ds#1->-repeat-l3h2#1,26007080,BLIND,7681389,NaN,complete,NaN,NaN,computer,Desktop or Laptop,Mac OS 10.15.7,Safari 14.1.2,1440x900,1440x820,End of Day 1,SLS,90,B,NaN,NaN,NaN,Pass,End of Day 1,Pass,NaN,Pass,NaN,Pass,schedule_B,schedule_B,35,18,6,end,Zone1,timelimit_screen,150,NaN,NaN,,NaN,0,1,0,NaN,NaN,1,NaN,NaN,trial_left,blueBox.png,blueBox.png,greenBox.png,al2_uncon.png,65,34,NaN,NaN,0.85,0.85,1,1,1,1,Volatile,Volatile,2.261,0.866,1.811,2.849,inexpert
174,1671315724529,17/12/2022 22:22:04,1671315722511,0,17/12/2022 22:22:02,109680,37,task-rbyw,repeat-u7ds#1->-repeat-l3h2#1,26007080,BLIND,7681389,NaN,complete,NaN,NaN,computer,Desktop or Laptop,Mac OS 10.15.7,Safari 14.1.2,1440x900,1440x820,End of Day 1,SLS,90,B,NaN,NaN,NaN,Pass,End of Day 1,Pass,NaN,Pass,NaN,Pass,schedule_B,schedule_B,36,19,1,Screen 1,Zone1,continue_button,719,NaN,NaN,,NaN,0,1,0,NaN,NaN,NaN,NaN,NaN,trial_left,blueBox.png,blueBox.png,greenBox.png,al2_uncon.png,66,35,NaN,NaN,0.85,0.85,1,1,1,1,Volatile,Volatile,1.807,1.029,1.634,2.092,inexpert
175,1671315725528,17/12/2022 22:22:05,1671315723503,0,17/12/2022 22:22:03,109680,37,task-rbyw,repeat-u7ds#1->-repeat-l3h2#1,26007080,BLIND,7681389,NaN,complete,NaN,NaN,computer,Desktop or Laptop,Mac OS 10.15.7,Safari 14.1.2,1440x900,1440x820,End of Day 1,SLS,90,B,NaN,NaN,NaN,Pass,End of Day 1,Pass,NaN,Pass,NaN,Pass,schedule_B,schedule_B,36,19,2,individual,Zone4,timelimit_screen,1000,NaN,NaN,,NaN,0,1,0,NaN,NaN,1,NaN,NaN,trial_left,blueBox.png,blueBox.png,greenBox.png,al2_uncon.png,66,35,NaN,NaN,0.85,0.85,1,1,1,1,Volatile,Volatile,1.807,1.029,1.634,2.092,inexpert
