EventIndex,UTCTimestamp,UTCDate,LocalTimestamp,LocalTimezone,LocalDate,ExperimentID,ExperimentVersion,TreeNodeKey,RepeatKey,ScheduleID,ParticipantPublicID,ParticipantPrivateID,ParticipantStartingGroup,ParticipantStatus,ParticipantCompletionCode,ParticipantExternalSessionID,ParticipantDeviceType,ParticipantDevice,ParticipantOS,ParticipantBrowser,ParticipantMonitorSize,ParticipantViewportSize,Checkpoint,TaskName,TaskVersion,randomiser_6z9f,branch_kxy7,checkpoint_tqwf,branch_rtog,branch_7dgx,checkpoint_mqen,branch_yx2c,branch_3n8o,branch_f1s6,branch_x6l7,branch_21hs,Spreadsheet,SpreadsheetName,SpreadsheetRow,TrialNumber,ScreenNumber,ScreenName,ZoneName,ZoneType,ReactionTime,ReactionOnset,ResponseType,Response,Attempt,Correct,Incorrect,Dishonest,XCoordinate,YCoordinate,TimedOut,randomise_blocks,randomise_trials,display,ANSWER,left_button,right_button,advice,orderno,trialno,ShowProgressBar,image,prob_blue_corr,prob_group_corr,corr_ans,group_corr,group_choice,blue_pos,indiv_vol,soc_vol,ITI_1,ITI_2,ITI_3,ITI_4,condition
1,1671576148355,20/12/2022 22:42:28,1671576148266,0,20/12/2022 22:42:28,109680,37,task-v1fs,repeat-u7ds#1->-repeat-l3h2#1->-repeat-pi7a#1->-repeat-apgu#1,26065502,BLIND,7681389,NaN,complete,NaN,NaN,computer,Desktop or Laptop,Mac OS 10.15.7,Safari 14.1.2,1440x900,1440x820,End of Day 1,SLS,90,B,NaN,NaN,NaN,Pass,End of Day 1,Pass,NaN,Pass,NaN,Pass,schedule_A,,NaN,NaN,NaN,,,,NaN,NaN,NaN,,NaN,0,1,0,NaN,NaN,NaN,NaN,NaN,,,,,,NaN,NaN,NaN,NaN,NaN,NaN,NaN,NaN,NaN,NaN,,,NaN,NaN,NaN,NaN,
2,1671576150331,20/12/2022 22:42:30,1671576150304,0,20/12/2022 22:42:30,109680,37,task-v1fs,repeat-u7ds#1->-repeat-l3h2#1->-repeat-pi7a#1->-repeat-apgu#1,26065502,BLIND,7681389,NaN,complete,NaN,NaN,computer,Desktop or Laptop,Mac OS 10.15.7,Safari 14.1.2,1440x900,1440x820,End of Day 1,SLS,90,B,NaN,NaN,NaN,Pass,End of Day 1,Pass,NaN,Pass,NaN,Pass,schedule_A,schedule_A,1,1,1,Screen 1,Zone1,continue_button,1508,NaN,NaN,,NaN,0,1,0,NaN,NaN,NaN,NaN,NaN,getReady,,,,,1,NaN,NaN,NaN,NaN,NaN,NaN,NaN,NaN,NaN,,,NaN,NaN,NaN,NaN,
3,1671576152057,20/12/2022 22:42:32,1671576151966,0,20/12/2022 22:42:31,109680,37,task-v1fs,repeat-u7ds#1->-repeat-l3h2#1->-repeat-pi7a#1->-repeat-apgu#1,26065502,BLIND,7681389,NaN,complete,NaN,NaN,computer,Desktop or Laptop,Mac OS 10.15.7,Safari 14.1.2,1440x900,1440x820,End of Day 1,SLS,90,B,NaN,NaN,NaN,Pass,End of Day 1,Pass,NaN,Pass,NaN,Pass,schedule_A,schedule_A,1,1,2,Screen 2,Zone1,continue_button,1654,NaN,NaN,,NaN,0,1,0,NaN,NaN,NaN,NaN,NaN,getReady,,,,,1,NaN,NaN,NaN,NaN,NaN,NaN,NaN,NaN,NaN,,,NaN,NaN,NaN,NaN,
4,1671576156007,20/12/2022 22:42:36,1671576155985,0,20/12/2022 22:42:35,109680,37,task-v1fs,repeat-u7ds#1->-repeat-l3h2#1->-repeat-pi7a#1->-repeat-apgu#1,26065502,BLIND,7681389,NaN,complete,NaN,NaN,computer,Desktop or Laptop,Mac OS 10.15.7,Safari 14.1.2,1440x900,1440x820,End of Day 1,SLS,90,B,NaN,NaN,NaN,Pass,End of Day 1,Pass,NaN,Pass,NaN,Pass,schedule_A,schedule_A,2,1,1,Screen 1,Zone1,continue_button,3995,NaN,NaN,,NaN,0,1,0,NaN,NaN,NaN,NaN,NaN,trial_right,redBox.png,yellowBox.png,redBox.png,al1_con.png,2,1,NaN,NaN,0.85,0.85,1,1,1,0,Volatile,Stable,3.471,0.525,1.66,2.529,expert
5,1671576157002,20/12/2022 22:42:37,1671576156978,0,20/12/2022 22:42:36,109680,37,task-v1fs,repeat-u7ds#1->-repeat-l3h2#1->-repeat-pi7a#1->-repeat-apgu#1,26065502,BLIND,7681389,NaN,complete,NaN,NaN,computer,Desktop or Laptop,Mac OS 10.15.7,Safari 14.1.2,1440x900,1440x820,End of Day 1,SLS,90,B,NaN,NaN,NaN,Pass,End of Day 1,Pass,NaN,Pass,NaN,Pass,schedule_A,schedule_A,2,1,2,individual,Zone4,timelimit_screen,1000,NaN,NaN,,NaN,0,1,0,NaN,NaN,1,NaN,NaN,trial_right,redBox.png,yellowBox.png,redBox.png,al1_con.png,2,1,NaN,NaN,0.85,0.85,1,1,1,0,Volatile,Stable,3.471,0.525,1.66,2.529,expert
6,1671576158228,20/12/2022 22:42:38,1671576158176,0,20/12/2022 22:42:38,109680,37,task-v1fs,repeat-u7ds#1->-repeat-l3h2#1->-repeat-pi7a#1->-repeat-apgu#1,26065502,BLIND,7681389,NaN,complete,NaN,NaN,computer,Desktop or Laptop,Mac OS 10.15.7,Safari 14.1.2,1440x900,1440x820,End of Day 1,SLS,90,B,NaN,NaN,NaN,Pass,End of Day 1,Pass,NaN,Pass,NaN,Pass,schedule_A,schedule_A,2,1,3,offer,Zone3,response_button_image,1182,NaN,NaN,redBox.png,1,1,0,0,NaN,NaN,NaN,NaN,NaN,trial_right,redBox.png,yellowBox.png,redBox.png,al1_con.png,2,1,NaN,NaN,0.85,0.85,1,1,1,0,Volatile,Stable,3.471,0.525,1.66,2.529,expert
7,1671576160179,20/12/2022 22:42:40,1671576160161,0,20/12/2022 22:42:40,109680,37,task-v1fs,repeat-u7ds#1->-repeat-l3h2#1->-repeat-pi7a#1->-repeat-apgu#1,26065502,BLIND,7681389,NaN,complete,NaN,NaN,computer,Desktop or Laptop,Mac OS 10.15.7,Safari 14.1.2,1440x900,1440x820,End of Day 1,SLS,90,B,NaN,NaN,NaN,Pass,End of Day 1,Pass,NaN,Pass,NaN,Pass,schedule_A,schedule_A,2,1,5,feedback_r,Zone7,timelimit_screen,2000,NaN,NaN,,NaN,0,1,0,NaN,NaN,1,NaN,NaN,trial_right,redBox.png,yellowBox.png,redBox.png,al1_con.png,2,1,NaN,NaN,0.85,0.85,1,1,1,0,Volatile,Stable,3.471,0.525,1.66,2.529,expert
8,1671576160334,20/12/2022 22:42:40,1671576160311,0,20/12/2022 22:42:40,109680,37,task-v1fs,repeat-u7ds#1->-repeat-l3h2#1->-repeat-pi7a#1->-repeat-apgu#1,26065502,BLIND,7681389,NaN,complete,NaN,NaN,computer,Desktop or Laptop,Mac OS 10.15.7,Safari 14.1.2,1440x900,1440x820,End of Day 1,SLS,90,B,NaN,NaN,NaN,Pass,End of Day 1,Pass,NaN,Pass,NaN,Pass,schedule_A,schedule_A,2,1,6,end,Zone1,timelimit_screen,150,NaN,NaN,,NaN,0,1,0,NaN,NaN,1,NaN,NaN,trial_right,redBox.png,yellowBox.png,redBox.png,al1_con.png,2,1,NaN,NaN,0.85,0.85,1,1,1,0,Volatile,Stable,3.471,0.525,1.66,2.529,expert
9,1671576161757,20/12/2022 22:42:41,1671576161731,0,20/12/2022 22:42:41,109680,37,task-v1fs,repeat-u7ds#1->-repeat-l3h2#1->-repeat-pi7a#1->-repeat-apgu#1,26065502,BLIND,7681389,NaN,complete,NaN,NaN,computer,Desktop or Laptop,Mac OS 10.15.7,Safari 14.1.2,1440x900,1440x820,End of Day 1,SLS,90,B,NaN,NaN,NaN,Pass,End of Day 1,Pass,NaN,Pass,NaN,Pass,schedule_A,schedule_A,3,1,1,Screen 1,Zone1,continue_button,1393,NaN,NaN,,NaN,0,1,0,NaN,NaN,NaN,NaN,NaN,trial_left,redBox.png,redBox.png,yellowBox.png,al1_con.png,3,2,NaN,NaN,0.85,0.85,1,1,1,1,Volatile,Stable,1.782,1.168,1.168,2.462,expert
10,1671576162759,20/12/2022 22:42:42,1671576162728,0,20/12/2022 22:42:42,109680,37,task-v1fs,repeat-u7ds#1->-repeat-l3h2#1->-repeat-pi7a#1->-repeat-apgu#1,26065502,BLIND,7681389,NaN,complete,NaN,NaN,computer,Desktop or Laptop,Mac OS 10.15.7,Safari 14.1.2,1440x900,1440x820,End of Day 1,SLS,90,B,NaN,NaN,NaN,Pass,End of Day 1,Pass,NaN,Pass,NaN,Pass,schedule_A,schedule_A,3,1,2,individual,Zone4,timelimit_screen,1000,NaN,NaN,,NaN,0,1,0,NaN,NaN,1,NaN,NaN,trial_left,redBox.png,redBox.png,yellowBox.png,al1_con.png,3,2,NaN,NaN,0.85,0.85,1,1,1,1,Volatile,Stable,1.782,1.168,1.168,2.462,expert
11,1671576163684,20/12/2022 22:42:43,1671576163660,0,20/12/2022 22:42:43,109680,37,task-v1fs,repeat-u7ds#1->-repeat-l3h2#1->-repeat-pi7a#1->-repeat-apgu#1,26065502,BLIND,7681389,NaN,complete,NaN,NaN,computer,Desktop or Laptop,Mac OS 10.15.7,Safari 14.1.2,1440x900,1440x820,End of Day 1,SLS,90,B,NaN,NaN,NaN,Pass,End of Day 1,Pass,NaN,Pass,NaN,Pass,schedule_A,schedule_A,3,1,3,offer,Zone2,response_button_image,922.000000000002,NaN,NaN,redBox.png,1,1,0,0,NaN,NaN,NaN,NaN,NaN,trial_left,redBox.png,redBox.png,yellowBox.png,al1_con.png,3,2,NaN,NaN,0.85,0.85,1,1,1,1,Volatile,Stable,1.782,1.168,1.168,2.462,expert
12,1671576165659,20/12/2022 22:42:45,1671576165645,0,20/12/2022 22:42:45,109680,37,task-v1fs,repeat-u7ds#1->-repeat-l3h2#1->-repeat-pi7a#1->-repeat-apgu#1,26065502,BLIND,7681389,NaN,complete,NaN,NaN,computer,Desktop or Laptop,Mac OS 10.15.7,Safari 14.1.2,1440x900,1440x820,End of Day 1,SLS,90,B,NaN,NaN,NaN,Pass,End of Day 1,Pass,NaN,Pass,NaN,Pass,schedule_A,schedule_A,3,1,4,feedback_l,Zone7,timelimit_screen,2000,NaN,NaN,,NaN,0,1,0,NaN,NaN,1,NaN,NaN,trial_left,redBox.png,redBox.png,yellowBox.png,al1_con.png,3,2,NaN,NaN,0.85,0.85,1,1,1,1,Volatile,Stable,1.782,1.168,1.168,2.462,expert
13,1671576165816,20/12/2022 22:42:45,1671576165793,0,20/12/2022 22:42:45,109680,37,task-v1fs,repeat-u7ds#1->-repeat-l3h2#1->-repeat-pi7a#1->-repeat-apgu#1,26065502,BLIND,7681389,NaN,complete,NaN,NaN,computer,Desktop or Laptop,Mac OS 10.15.7,Safari 14.1.2,1440x900,1440x820,End of Day 1,SLS,90,B,NaN,NaN,NaN,Pass,End of Day 1,Pass,NaN,Pass,NaN,Pass,schedule_A,schedule_A,3,1,6,end,Zone1,timelimit_screen,150,NaN,NaN,,NaN,0,1,0,NaN,NaN,1,NaN,NaN,trial_left,redBox.png,redBox.png,yellowBox.png,al1_con.png,3,2,NaN,NaN,0.85,0.85,1,1,1,1,Volatile,Stable,1.782,1.168,1.168,2.462,expert
14,1671576166643,20/12/2022 22:42:46,1671576166633,0,20/12/2022 22:42:46,109680,37,task-v1fs,repeat-u7ds#1->-repeat-l3h2#1->-repeat-pi7a#1->-repeat-apgu#1,26065502,BLIND,7681389,NaN,complete,NaN,NaN,computer,Desktop or Laptop,Mac OS 10.15.7,Safari 14.1.2,1440x900,1440x820,End of Day 1,SLS,90,B,NaN,NaN,NaN,Pass,End of Day 1,Pass,NaN,Pass,NaN,Pass,schedule_A,schedule_A,4,2,1,Screen 1,Zone1,continue_button,815,NaN,NaN,,NaN,0,1,0,NaN,NaN,NaN,NaN,NaN,trial_right,redBox.png,yellowBox.png,redBox.png,al1_con.png,4,3,NaN,NaN,0.85,0.85,1,1,1,0,Volatile,Stable,1.983,1.181,0.538,1.588,expert
15,1671576167654,20/12/2022 22:42:47,1671576167628,0,20/12/2022 22:42:47,109680,37,task-v1fs,repeat-u7ds#1->-repeat-l3h2#1->-repeat-pi7a#1->-repeat-apgu#1,26065502,BLIND,7681389,NaN,complete,NaN,NaN,computer,Desktop or Laptop,Mac OS 10.15.7,Safari 14.1.2,1440x900,1440x820,End of Day 1,SLS,90,B,NaN,NaN,NaN,Pass,End of Day 1,Pass,NaN,Pass,NaN,Pass,schedule_A,schedule_A,4,2,2,individual,Zone4,timelimit_screen,1001,NaN,NaN,,NaN,0,1,0,NaN,NaN,1,NaN,NaN,trial_right,redBox.png,yellowBox.png,redBox.png,al1_con.png,4,3,NaN,NaN,0.85,0.85,1,1,1,0,Volatile,Stable,1.983,1.181,0.538,1.588,expert
16,1671576168434,20/12/2022 22:42:48,1671576168409,0,20/12/2022 22:42:48,109680,37,task-v1fs,repeat-u7ds#1->-repeat-l3h2#1->-repeat-pi7a#1->-repeat-apgu#1,26065502,BLIND,7681389,NaN,complete,NaN,NaN,computer,Desktop or Laptop,Mac OS 10.15.7,Safari 14.1.2,1440x900,1440x820,End of Day 1,SLS,90,B,NaN,NaN,NaN,Pass,End of Day 1,Pass,NaN,Pass,NaN,Pass,schedule_A,schedule_A,4,2,3,offer,Zone3,response_button_image,766.999999999996,NaN,NaN,redBox.png,1,1,0,0,NaN,NaN,NaN,NaN,NaN,trial_right,redBox.png,yellowBox.png,redBox.png,al1_con.png,4,3,NaN,NaN,0.85,0.85,1,1,1,0,Volatile,Stable,1.983,1.181,0.538,1.588,expert
17,1671576170415,20/12/2022 22:42:50,1671576170394,0,20/12/2022 22:42:50,109680,37,task-v1fs,repeat-u7ds#1->-repeat-l3h2#1->-repeat-pi7a#1->-repeat-apgu#1,26065502,BLIND,7681389,NaN,complete,NaN,NaN,computer,Desktop or Laptop,Mac OS 10.15.7,Safari 14.1.2,1440x900,1440x820,End of Day 1,SLS,90,B,NaN,NaN,NaN,Pass,End of Day 1,Pass,NaN,Pass,NaN,Pass,schedule_A,schedule_A,4,2,5,feedback_r,Zone7,timelimit_screen,2000,NaN,NaN,,NaN,0,1,0,NaN,NaN,1,NaN,NaN,trial_right,redBox.png,yellowBox.png,redBox.png,al1_con.png,4,3,NaN,NaN,0.85,0.85,1,1,1,0,Volatile,Stable,1.983,1.181,0.538,1.588,expert
18,1671576170560,20/12/2022 22:42:50,1671576170543,0,20/12/2022 22:42:50,109680,37,task-v1fs,repeat-u7ds#1->-repeat-l3h2#1->-repeat-pi7a#1->-repeat-apgu#1,26065502,BLIND,7681389,NaN,complete,NaN,NaN,computer,Desktop or Laptop,Mac OS 10.15.7,Safari 14.1.2,1440x900,1440x820,End of Day 1,SLS,90,B,NaN,NaN,NaN,Pass,End of Day 1,Pass,NaN,Pass,NaN,Pass,schedule_A,schedule_A,4,2,6,end,Zone1,timelimit_screen,150,NaN,NaN,,NaN,0,1,0,NaN,NaN,1,NaN,NaN,trial_right,redBox.png,yellowBox.png,redBox.png,al1_con.png,4,3,NaN,NaN,0.85,0.85,1,1,1,0,Volatile,Stable,1.983,1.181,0.538,1.588,expert
19,1671576171333,20/12/2022 22:42:51,1671576171310,0,20/12/2022 22:42:51,109680,37,task-v1fs,repeat-u7ds#1->-repeat-l3h2#1->-repeat-pi7a#1->-repeat-apgu#1,26065502,BLIND,7681389,NaN,complete,NaN,NaN,computer,Desktop or Laptop,Mac OS 10.15.7,Safari 14.1.2,1440x900,1440x820,End of Day 1,SLS,90,B,NaN,NaN,NaN,Pass,End of Day 1,Pass,NaN,Pass,NaN,Pass,schedule_A,schedule_A,5,3,1,Screen 1,Zone1,continue_button,752,NaN,NaN,,NaN,0,1,0,NaN,NaN,NaN,NaN,NaN,trial_right,redBox.png,yellowBox.png,redBox.png,al1_con.png,5,4,NaN,NaN,0.85,0.85,1,1,1,0,Volatile,Stable,1.529,0.891,1.004,1,expert
20,1671576172307,20/12/2022 22:42:52,1671576172293,0,20/12/2022 22:42:52,109680,37,task-v1fs,repeat-u7ds#1->-repeat-l3h2#1->-repeat-pi7a#1->-repeat-apgu#1,26065502,BLIND,7681389,NaN,complete,NaN,NaN,computer,Desktop or Laptop,Mac OS 10.15.7,Safari 14.1.2,1440x900,1440x820,End of Day 1,SLS,90,B,NaN,NaN,NaN,Pass,End of Day 1,Pass,NaN,Pass,NaN,Pass,schedule_A,schedule_A,5,3,2,individual,Zone4,timelimit_screen,998,NaN,NaN,,NaN,0,1,0,NaN,NaN,1,NaN,NaN,trial_right,redBox.png,yellowBox.png,redBox.png,al1_con.png,5,4,NaN,NaN,0.85,0.85,1,1,1,0,Volatile,Stable,1.529,0.891,1.004,1,expert
21,1671576173061,20/12/2022 22:42:53,1671576173036,0,20/12/2022 22:42:53,109680,37,task-v1fs,repeat-u7ds#1->-repeat-l3h2#1->-repeat-pi7a#1->-repeat-apgu#1,26065502,BLIND,7681389,NaN,complete,NaN,NaN,computer,Desktop or Laptop,Mac OS 10.15.7,Safari 14.1.2,1440x900,1440x820,End of Day 1,SLS,90,B,NaN,NaN,NaN,Pass,End of Day 1,Pass,NaN,Pass,NaN,Pass,schedule_A,schedule_A,5,3,3,offer,Zone3,response_button_image,733.999999999996,NaN,NaN,redBox.png,1,1,0,0,NaN,NaN,NaN,NaN,NaN,trial_right,redBox.png,yellowBox.png,redBox.png,al1_con.png,5,4,NaN,NaN,0.85,0.85,1,1,1,0,Volatile,Stable,1.529,0.891,1.004,1,expert
22,1671576175049,20/12/2022 22:42:55,1671576175027,0,20/12/2022 22:42:55,109680,37,task-v1fs,repeat-u7ds#1->-repeat-l3h2#1->-repeat-pi7a#1->-repeat-apgu#1,26065502,BLIND,7681389,NaN,complete,NaN,NaN,computer,Desktop or Laptop,Mac OS 10.15.7,Safari 14.1.2,1440x900,1440x820,End of Day 1,SLS,90,B,NaN,NaN,NaN,Pass,End of Day 1,Pass,NaN,Pass,NaN,Pass,schedule_A,schedule_A,5,3,5,feedback_r,Zone7,timelimit_screen,2001,NaN,NaN,,NaN,0,1,0,NaN,NaN,1,NaN,NaN,trial_right,redBox.png,yellowBox.png,redBox.png,al1_con.png,5,4,NaN,NaN,0.85,0.85,1,1,1,0,Volatile,Stable,1.529,0.891,1.004,1,expert
23,1671576175209,20/12/2022 22:42:55,1671576175178,0,20/12/2022 22:42:55,109680,37,task-v1fs,repeat-u7ds#1->-repeat-l3h2#1->-repeat-pi7a#1->-repeat-apgu#1,26065502,BLIND,7681389,NaN,complete,NaN,NaN,computer,Desktop or Laptop,Mac OS 10.15.7,Safari 14.1.2,1440x900,1440x820,End of Day 1,SLS,90,B,NaN,NaN,NaN,Pass,End of Day 1,Pass,NaN,Pass,NaN,Pass,schedule_A,schedule_A,5,3,6,end,Zone1,timelimit_screen,150,NaN,NaN,,NaN,0,1,0,NaN,NaN,1,NaN,NaN,trial_right,redBox.png,yellowBox.png,redBox.png,al1_con.png,5,4,NaN,NaN,0.85,0.85,1,1,1,0,Volatile,Stable,1.529,0.891,1.004,1,expert
24,1671576176040,20/12/2022 22:42:56,1671576176015,0,20/12/2022 22:42:56,109680,37,task-v1fs,repeat-u7ds#1->-repeat-l3h2#1->-repeat-pi7a#1->-repeat-apgu#1,26065502,BLIND,7681389,NaN,complete,NaN,NaN,computer,Desktop or Laptop,Mac OS 10.15.7,Safari 14.1.2,1440x900,1440x820,End of Day 1,SLS,90,B,NaN,NaN,NaN,Pass,End of Day 1,Pass,NaN,Pass,NaN,Pass,schedule_A,schedule_A,6,2,1,Screen 1,Zone1,continue_button,816,NaN,NaN,,NaN,0,1,0,NaN,NaN,NaN,NaN,NaN,trial_left,redBox.png,redBox.png,yellowBox.png,al1_con.png,6,5,NaN,NaN,0.85,0.85,1,1,1,1,Volatile,Stable,1.832,1.118,0.752,1.79,expert
25,1671576177022,20/12/2022 22:42:57,1671576177010,0,20/12/2022 22:42:57,109680,37,task-v1fs,repeat-u7ds#1->-repeat-l3h2#1->-repeat-pi7a#1->-repeat-apgu#1,26065502,BLIND,7681389,NaN,complete,NaN,NaN,computer,Desktop or Laptop,Mac OS 10.15.7,Safari 14.1.2,1440x900,1440x820,End of Day 1,SLS,90,B,NaN,NaN,NaN,Pass,End of Day 1,Pass,NaN,Pass,NaN,Pass,schedule_A,schedule_A,6,2,2,individual,Zone4,timelimit_screen,1000,NaN,NaN,,NaN,0,1,0,NaN,NaN,1,NaN,NaN,trial_left,redBox.png,redBox.png,yellowBox.png,al1_con.png,6,5,NaN,NaN,0.85,0.85,1,1,1,1,Volatile,Stable,1.832,1.118,0.752,1.79,expert
26,1671576177808,20/12/2022 22:42:57,1671576177784,0,20/12/2022 22:42:57,109680,37,task-v1fs,repeat-u7ds#1->-repeat-l3h2#1->-repeat-pi7a#1->-repeat-apgu#1,26065502,BLIND,7681389,NaN,complete,NaN,NaN,computer,Desktop or Laptop,Mac OS 10.15.7,Safari 14.1.2,1440x900,1440x820,End of Day 1,SLS,90,B,NaN,NaN,NaN,Pass,End of Day 1,Pass,NaN,Pass,NaN,Pass,schedule_A,schedule_A,6,2,3,offer,Zone2,response_button_image,763.999999999996,NaN,NaN,redBox.png,1,1,0,0,NaN,NaN,NaN,NaN,NaN,trial_left,redBox.png,redBox.png,yellowBox.png,al1_con.png,6,5,NaN,NaN,0.85,0.85,1,1,1,1,Volatile,Stable,1.832,1.118,0.752,1.79,expert
27,1671576179803,20/12/2022 22:42:59,1671576179778,0,20/12/2022 22:42:59,109680,37,task-v1fs,repeat-u7ds#1->-repeat-l3h2#1->-repeat-pi7a#1->-repeat-apgu#1,26065502,BLIND,7681389,NaN,complete,NaN,NaN,computer,Desktop or Laptop,Mac OS 10.15.7,Safari 14.1.2,1440x900,1440x820,End of Day 1,SLS,90,B,NaN,NaN,NaN,Pass,End of Day 1,Pass,NaN,Pass,NaN,Pass,schedule_A,schedule_A,6,2,4,feedback_l,Zone7,timelimit_screen,2000,NaN,NaN,,NaN,0,1,0,NaN,NaN,1,NaN,NaN,trial_left,redBox.png,redBox.png,yellowBox.png,al1_con.png,6,5,NaN,NaN,0.85,0.85,1,1,1,1,Volatile,Stable,1.832,1.118,0.752,1.79,expert
28,1671576179944,20/12/2022 22:42:59,1671576179926,0,20/12/2022 22:42:59,109680,37,task-v1fs,repeat-u7ds#1->-repeat-l3h2#1->-repeat-pi7a#1->-repeat-apgu#1,26065502,BLIND,7681389,NaN,complete,NaN,NaN,computer,Desktop or Laptop,Mac OS 10.15.7,Safari 14.1.2,1440x900,1440x820,End of Day 1,SLS,90,B,NaN,NaN,NaN,Pass,End of Day 1,Pass,NaN,Pass,NaN,Pass,schedule_A,schedule_A,6,2,6,end,Zone1,timelimit_screen,149,NaN,NaN,,NaN,0,1,0,NaN,NaN,1,NaN,NaN,trial_left,redBox.png,redBox.png,yellowBox.png,al1_con.png,6,5,NaN,NaN,0.85,0.85,1,1,1,1,Volatile,Stable,1.832,1.118,0.752,1.79,expert
29,1671576180700,20/12/2022 22:43:00,1671576180688,0,20/12/2022 22:43:00,109680,37,task-v1fs,repeat-u7ds#1->-repeat-l3h2#1->-repeat-pi7a#1->-repeat-apgu#1,26065502,BLIND,7681389,NaN,complete,NaN,NaN,computer,Desktop or Laptop,Mac OS 10.15.7,Safari 14.1.2,1440x900,1440x820,End of Day 1,SLS,90,B,NaN,NaN,NaN,Pass,End of Day 1,Pass,NaN,Pass,NaN,Pass,schedule_A,schedule_A,7,4,1,Screen 1,Zone1,continue_button,745.000000000004,NaN,NaN,,NaN,0,1,0,NaN,NaN,NaN,NaN,NaN,trial_right,yellowBox.png,redBox.png,yellowBox.png,al1_con.png,7,6,NaN,NaN,0.15,0.85,0,1,0,1,Volatile,Stable,3.294,0.815,1.282,2.664,expert
30,1671576181701,20/12/2022 22:43:01,1671576181678,0,20/12/2022 22:43:01,109680,37,task-v1fs,repeat-u7ds#1->-repeat-l3h2#1->-repeat-pi7a#1->-repeat-apgu#1,26065502,BLIND,7681389,NaN,complete,NaN,NaN,computer,Desktop or Laptop,Mac OS 10.15.7,Safari 14.1.2,1440x900,1440x820,End of Day 1,SLS,90,B,NaN,NaN,NaN,Pass,End of Day 1,Pass,NaN,Pass,NaN,Pass,schedule_A,schedule_A,7,4,2,individual,Zone4,timelimit_screen,1000,NaN,NaN,,NaN,0,1,0,NaN,NaN,1,NaN,NaN,trial_right,yellowBox.png,redBox.png,yellowBox.png,al1_con.png,7,6,NaN,NaN,0.15,0.85,0,1,0,1,Volatile,Stable,3.294,0.815,1.282,2.664,expert
31,1671576182567,20/12/2022 22:43:02,1671576182542,0,20/12/2022 22:43:02,109680,37,task-v1fs,repeat-u7ds#1->-repeat-l3h2#1->-repeat-pi7a#1->-repeat-apgu#1,26065502,BLIND,7681389,NaN,complete,NaN,NaN,computer,Desktop or Laptop,Mac OS 10.15.7,Safari 14.1.2,1440x900,1440x820,End of Day 1,SLS,90,B,NaN,NaN,NaN,Pass,End of Day 1,Pass,NaN,Pass,NaN,Pass,schedule_A,schedule_A,7,4,3,offer,Zone3,response_button_image,850.000000000007,NaN,NaN,yellowBox.png,1,1,0,0,NaN,NaN,NaN,NaN,NaN,trial_right,yellowBox.png,redBox.png,yellowBox.png,al1_con.png,7,6,NaN,NaN,0.15,0.85,0,1,0,1,Volatile,Stable,3.294,0.815,1.282,2.664,expert
32,1671576184557,20/12/2022 22:43:04,1671576184527,0,20/12/2022 22:43:04,109680,37,task-v1fs,repeat-u7ds#1->-repeat-l3h2#1->-repeat-pi7a#1->-repeat-apgu#1,26065502,BLIND,7681389,NaN,complete,NaN,NaN,computer,Desktop or Laptop,Mac OS 10.15.7,Safari 14.1.2,1440x900,1440x820,End of Day 1,SLS,90,B,NaN,NaN,NaN,Pass,End of Day 1,Pass,NaN,Pass,NaN,Pass,schedule_A,schedule_A,7,4,5,feedback_r,Zone7,timelimit_screen,2000,NaN,NaN,,NaN,0,1,0,NaN,NaN,1,NaN,NaN,trial_right,yellowBox.png,redBox.png,yellowBox.png,al1_con.png,7,6,NaN,NaN,0.15,0.85,0,1,0,1,Volatile,Stable,3.294,0.815,1.282,2.664,expert
33,1671576184702,20/12/2022 22:43:04,1671576184677,0,20/12/2022 22:43:04,109680,37,task-v1fs,repeat-u7ds#1->-repeat-l3h2#1->-repeat-pi7a#1->-repeat-apgu#1,26065502,BLIND,7681389,NaN,complete,NaN,NaN,computer,Desktop or Laptop,Mac OS 10.15.7,Safari 14.1.2,1440x900,1440x820,End of Day 1,SLS,90,B,NaN,NaN,NaN,Pass,End of Day 1,Pass,NaN,Pass,NaN,Pass,schedule_A,schedule_A,7,4,6,end,Zone1,timelimit_screen,150,NaN,NaN,,NaN,0,1,0,NaN,NaN,1,NaN,NaN,trial_right,yellowBox.png,redBox.png,yellowBox.png,al1_con.png,7,6,NaN,NaN,0.15,0.85,0,1,0,1,Volatile,Stable,3.294,0.815,1.282,2.664,expert
34,1671576185458,20/12/2022 22:43:05,1671576185445,0,20/12/2022 22:43:05,109680,37,task-v1fs,repeat-u7ds#1->-repeat-l3h2#1->-repeat-pi7a#1->-repeat-apgu#1,26065502,BLIND,7681389,NaN,complete,NaN,NaN,computer,Desktop or Laptop,Mac OS 10.15.7,Safari 14.1.2,1440x900,1440x820,End of Day 1,SLS,90,B,NaN,NaN,NaN,Pass,End of Day 1,Pass,NaN,Pass,NaN,Pass,schedule_A,schedule_A,8,3,1,Screen 1,Zone1,continue_button,745,NaN,NaN,,NaN,0,1,0,NaN,NaN,NaN,NaN,NaN,trial_left,yellowBox.png,yellowBox.png,redBox.png,al1_con.png,8,7,NaN,NaN,0.15,0.85,0,1,0,0,Volatile,Stable,3.269,1.37,1.786,2.328,expert
35,1671576186457,20/12/2022 22:43:06,1671576186444,0,20/12/2022 22:43:06,109680,37,task-v1fs,repeat-u7ds#1->-repeat-l3h2#1->-repeat-pi7a#1->-repeat-apgu#1,26065502,BLIND,7681389,NaN,complete,NaN,NaN,computer,Desktop or Laptop,Mac OS 10.15.7,Safari 14.1.2,1440x900,1440x820,End of Day 1,SLS,90,B,NaN,NaN,NaN,Pass,End of Day 1,Pass,NaN,Pass,NaN,Pass,schedule_A,schedule_A,8,3,2,individual,Zone4,timelimit_screen,1000,NaN,NaN,,NaN,0,1,0,NaN,NaN,1,NaN,NaN,trial_left,yellowBox.png,yellowBox.png,redBox.png,al1_con.png,8,7,NaN,NaN,0.15,0.85,0,1,0,0,Volatile,Stable,3.269,1.37,1.786,2.328,expert
36,1671576187474,20/12/2022 22:43:07,1671576187460,0,20/12/2022 22:43:07,109680,37,task-v1fs,repeat-u7ds#1->-repeat-l3h2#1->-repeat-pi7a#1->-repeat-apgu#1,26065502,BLIND,7681389,NaN,complete,NaN,NaN,computer,Desktop or Laptop,Mac OS 10.15.7,Safari 14.1.2,1440x900,1440x820,End of Day 1,SLS,90,B,NaN,NaN,NaN,Pass,End of Day 1,Pass,NaN,Pass,NaN,Pass,schedule_A,schedule_A,8,3,3,offer,Zone2,response_button_image,1002,NaN,NaN,yellowBox.png,1,1,0,0,NaN,NaN,NaN,NaN,NaN,trial_left,yellowBox.png,yellowBox.png,redBox.png,al1_con.png,8,7,NaN,NaN,0.15,0.85,0,1,0,0,Volatile,Stable,3.269,1.37,1.786,2.328,expert
37,1671576189472,20/12/2022 22:43:09,1671576189444,0,20/12/2022 22:43:09,109680,37,task-v1fs,repeat-u7ds#1->-repeat-l3h2#1->-repeat-pi7a#1->-repeat-apgu#1,26065502,BLIND,7681389,NaN,complete,NaN,NaN,computer,Desktop or Laptop,Mac OS 10.15.7,Safari 14.1.2,1440x900,1440x820,End of Day 1,SLS,90,B,NaN,NaN,NaN,Pass,End of Day 1,Pass,NaN,Pass,NaN,Pass,schedule_A,schedule_A,8,3,4,feedback_l,Zone7,timelimit_screen,2000,NaN,NaN,,NaN,0,1,0,NaN,NaN,1,NaN,NaN,trial_left,yellowBox.png,yellowBox.png,redBox.png,al1_con.png,8,7,NaN,NaN,0.15,0.85,0,1,0,0,Volatile,Stable,3.269,1.37,1.786,2.328,expert
38,1671576189607,20/12/2022 22:43:09,1671576189594,0,20/12/2022 22:43:09,109680,37,task-v1fs,repeat-u7ds#1->-repeat-l3h2#1->-repeat-pi7a#1->-repeat-apgu#1,26065502,BLIND,7681389,NaN,complete,NaN,NaN,computer,Desktop or Laptop,Mac OS 10.15.7,Safari 14.1.2,1440x900,1440x820,End of Day 1,SLS,90,B,NaN,NaN,NaN,Pass,End of Day 1,Pass,NaN,Pass,NaN,Pass,schedule_A,schedule_A,8,3,6,end,Zone1,timelimit_screen,150,NaN,NaN,,NaN,0,1,0,NaN,NaN,1,NaN,NaN,trial_left,yellowBox.png,yellowBox.png,redBox.png,al1_con.png,8,7,NaN,NaN,0.15,0.85,0,1,0,0,Volatile,Stable,3.269,1.37,1.786,2.328,expert
39,1671576190637,20/12/2022 22:43:10,1671576190625,0,20/12/2022 22:43:10,109680,37,task-v1fs,repeat-u7ds#1->-repeat-l3h2#1->-repeat-pi7a#1->-repeat-apgu#1,26065502,BLIND,7681389,NaN,complete,NaN,NaN,computer,Desktop or Laptop,Mac OS 10.15.7,Safari 14.1.2,1440x900,1440x820,End of Day 1,SLS,90,B,NaN,NaN,NaN,Pass,End of Day 1,Pass,NaN,Pass,NaN,Pass,schedule_A,schedule_A,9,4,1,Screen 1,Zone1,continue_button,1009,NaN,NaN,,NaN,0,1,0,NaN,NaN,NaN,NaN,NaN,trial_left,yellowBox.png,redBox.png,yellowBox.png,al1_con.png,9,8,NaN,NaN,0.15,0.85,0,0,1,1,Volatile,Stable,3.975,0.576,1.256,1.807,expert
40,1671576191632,20/12/2022 22:43:11,1671576191611,0,20/12/2022 22:43:11,109680,37,task-v1fs,repeat-u7ds#1->-repeat-l3h2#1->-repeat-pi7a#1->-repeat-apgu#1,26065502,BLIND,7681389,NaN,complete,NaN,NaN,computer,Desktop or Laptop,Mac OS 10.15.7,Safari 14.1.2,1440x900,1440x820,End of Day 1,SLS,90,B,NaN,NaN,NaN,Pass,End of Day 1,Pass,NaN,Pass,NaN,Pass,schedule_A,schedule_A,9,4,2,individual,Zone4,timelimit_screen,1000,NaN,NaN,,NaN,0,1,0,NaN,NaN,1,NaN,NaN,trial_left,yellowBox.png,redBox.png,yellowBox.png,al1_con.png,9,8,NaN,NaN,0.15,0.85,0,0,1,1,Volatile,Stable,3.975,0.576,1.256,1.807,expert
41,1671576192454,20/12/2022 22:43:12,1671576192443,0,20/12/2022 22:43:12,109680,37,task-v1fs,repeat-u7ds#1->-repeat-l3h2#1->-repeat-pi7a#1->-repeat-apgu#1,26065502,BLIND,7681389,NaN,complete,NaN,NaN,computer,Desktop or Laptop,Mac OS 10.15.7,Safari 14.1.2,1440x900,1440x820,End of Day 1,SLS,90,B,NaN,NaN,NaN,Pass,End of Day 1,Pass,NaN,Pass,NaN,Pass,schedule_A,schedule_A,9,4,3,offer,Zone2,response_button_image,818,NaN,NaN,redBox.png,1,0,1,0,NaN,NaN,NaN,NaN,NaN,trial_left,yellowBox.png,redBox.png,yellowBox.png,al1_con.png,9,8,NaN,NaN,0.15,0.85,0,0,1,1,Volatile,Stable,3.975,0.576,1.256,1.807,expert
42,1671576194451,20/12/2022 22:43:14,1671576194427,0,20/12/2022 22:43:14,109680,37,task-v1fs,repeat-u7ds#1->-repeat-l3h2#1->-repeat-pi7a#1->-repeat-apgu#1,26065502,BLIND,7681389,NaN,complete,NaN,NaN,computer,Desktop or Laptop,Mac OS 10.15.7,Safari 14.1.2,1440x900,1440x820,End of Day 1,SLS,90,B,NaN,NaN,NaN,Pass,End of Day 1,Pass,NaN,Pass,NaN,Pass,schedule_A,schedule_A,9,4,4,feedback_l,Zone7,timelimit_screen,2000,NaN,NaN,,NaN,0,1,0,NaN,NaN,1,NaN,NaN,trial_left,yellowBox.png,redBox.png,yellowBox.png,al1_con.png,9,8,NaN,NaN,0.15,0.85,0,0,1,1,Volatile,Stable,3.975,0.576,1.256,1.807,expert
43,1671576194606,20/12/2022 22:43:14,1671576194577,0,20/12/2022 22:43:14,109680,37,task-v1fs,repeat-u7ds#1->-repeat-l3h2#1->-repeat-pi7a#1->-repeat-apgu#1,26065502,BLIND,7681389,NaN,complete,NaN,NaN,computer,Desktop or Laptop,Mac OS 10.15.7,Safari 14.1.2,1440x900,1440x820,End of Day 1,SLS,90,B,NaN,NaN,NaN,Pass,End of Day 1,Pass,NaN,Pass,NaN,Pass,schedule_A,schedule_A,9,4,6,end,Zone1,timelimit_screen,150,NaN,NaN,,NaN,0,1,0,NaN,NaN,1,NaN,NaN,trial_left,yellowBox.png,redBox.png,yellowBox.png,al1_con.png,9,8,NaN,NaN,0.15,0.85,0,0,1,1,Volatile,Stable,3.975,0.576,1.256,1.807,expert
44,1671576195596,20/12/2022 22:43:15,1671576195584,0,20/12/2022 22:43:15,109680,37,task-v1fs,repeat-u7ds#1->-repeat-l3h2#1->-repeat-pi7a#1->-repeat-apgu#1,26065502,BLIND,7681389,NaN,complete,NaN,NaN,computer,Desktop or Laptop,Mac OS 10.15.7,Safari 14.1.2,1440x900,1440x820,End of Day 1,SLS,90,B,NaN,NaN,NaN,Pass,End of Day 1,Pass,NaN,Pass,NaN,Pass,schedule_A,schedule_A,10,5,1,Screen 1,Zone1,continue_button,984,NaN,NaN,,NaN,0,1,0,NaN,NaN,NaN,NaN,NaN,trial_right,redBox.png,redBox.png,yellowBox.png,al1_con.png,10,9,NaN,NaN,0.15,0.85,1,0,0,1,Volatile,Stable,3.798,1.055,1.559,2.042,expert
45,1671576196593,20/12/2022 22:43:16,1671576196578,0,20/12/2022 22:43:16,109680,37,task-v1fs,repeat-u7ds#1->-repeat-l3h2#1->-repeat-pi7a#1->-repeat-apgu#1,26065502,BLIND,7681389,NaN,complete,NaN,NaN,computer,Desktop or Laptop,Mac OS 10.15.7,Safari 14.1.2,1440x900,1440x820,End of Day 1,SLS,90,B,NaN,NaN,NaN,Pass,End of Day 1,Pass,NaN,Pass,NaN,Pass,schedule_A,schedule_A,10,5,2,individual,Zone4,timelimit_screen,1000,NaN,NaN,,NaN,0,1,0,NaN,NaN,1,NaN,NaN,trial_right,redBox.png,redBox.png,yellowBox.png,al1_con.png,10,9,NaN,NaN,0.15,0.85,1,0,0,1,Volatile,Stable,3.798,1.055,1.559,2.042,expert
46,1671576197769,20/12/2022 22:43:17,1671576197759,0,20/12/2022 22:43:17,109680,37,task-v1fs,repeat-u7ds#1->-repeat-l3h2#1->-repeat-pi7a#1->-repeat-apgu#1,26065502,BLIND,7681389,NaN,complete,NaN,NaN,computer,Desktop or Laptop,Mac OS 10.15.7,Safari 14.1.2,1440x900,1440x820,End of Day 1,SLS,90,B,NaN,NaN,NaN,Pass,End of Day 1,Pass,NaN,Pass,NaN,Pass,schedule_A,schedule_A,10,5,3,offer,Zone3,response_button_image,1167,NaN,NaN,yellowBox.png,1,0,1,0,NaN,NaN,NaN,NaN,NaN,trial_right,redBox.png,redBox.png,yellowBox.png,al1_con.png,10,9,NaN,NaN,0.15,0.85,1,0,0,1,Volatile,Stable,3.798,1.055,1.559,2.042,expert
47,1671576199766,20/12/2022 22:43:19,1671576199743,0,20/12/2022 22:43:19,109680,37,task-v1fs,repeat-u7ds#1->-repeat-l3h2#1->-repeat-pi7a#1->-repeat-apgu#1,26065502,BLIND,7681389,NaN,complete,NaN,NaN,computer,Desktop or Laptop,Mac OS 10.15.7,Safari 14.1.2,1440x900,1440x820,End of Day 1,SLS,90,B,NaN,NaN,NaN,Pass,End of Day 1,Pass,NaN,Pass,NaN,Pass,schedule_A,schedule_A,10,5,5,feedback_r,Zone7,timelimit_screen,2000,NaN,NaN,,NaN,0,1,0,NaN,NaN,1,NaN,NaN,trial_right,redBox.png,redBox.png,yellowBox.png,al1_con.png,10,9,NaN,NaN,0.15,0.85,1,0,0,1,Volatile,Stable,3.798,1.055,1.559,2.042,expert
48,1671576199909,20/12/2022 22:43:19,1671576199893,0,20/12/2022 22:43:19,109680,37,task-v1fs,repeat-u7ds#1->-repeat-l3h2#1->-repeat-pi7a#1->-repeat-apgu#1,26065502,BLIND,7681389,NaN,complete,NaN,NaN,computer,Desktop or Laptop,Mac OS 10.15.7,Safari 14.1.2,1440x900,1440x820,End of Day 1,SLS,90,B,NaN,NaN,NaN,Pass,End of Day 1,Pass,NaN,Pass,NaN,Pass,schedule_A,schedule_A,10,5,6,end,Zone1,timelimit_screen,150,NaN,NaN,,NaN,0,1,0,NaN,NaN,1,NaN,NaN,trial_right,redBox.png,redBox.png,yellowBox.png,al1_con.png,10,9,NaN,NaN,0.15,0.85,1,0,0,1,Volatile,Stable,3.798,1.055,1.559,2.042,expert
49,1671576200414,20/12/2022 22:43:20,1671576200391,0,20/12/2022 22:43:20,109680,37,task-v1fs,repeat-u7ds#1->-repeat-l3h2#1->-repeat-pi7a#1->-repeat-apgu#1,26065502,BLIND,7681389,NaN,complete,NaN,NaN,computer,Desktop or Laptop,Mac OS 10.15.7,Safari 14.1.2,1440x900,1440x820,End of Day 1,SLS,90,B,NaN,NaN,NaN,Pass,End of Day 1,Pass,NaN,Pass,NaN,Pass,schedule_A,schedule_A,11,6,1,Screen 1,Zone1,continue_button,479,NaN,NaN,,NaN,0,1,0,NaN,NaN,NaN,NaN,NaN,trial_right,yellowBox.png,redBox.png,yellowBox.png,al1_con.png,21,10,NaN,NaN,0.15,0.85,0,1,0,1,Volatile,Stable,1.857,0.5,1.294,2.916,expert
50,1671576201402,20/12/2022 22:43:21,1671576201378,0,20/12/2022 22:43:21,109680,37,task-v1fs,repeat-u7ds#1->-repeat-l3h2#1->-repeat-pi7a#1->-repeat-apgu#1,26065502,BLIND,7681389,NaN,complete,NaN,NaN,computer,Desktop or Laptop,Mac OS 10.15.7,Safari 14.1.2,1440x900,1440x820,End of Day 1,SLS,90,B,NaN,NaN,NaN,Pass,End of Day 1,Pass,NaN,Pass,NaN,Pass,schedule_A,schedule_A,11,6,2,individual,Zone4,timelimit_screen,1001,NaN,NaN,,NaN,0,1,0,NaN,NaN,1,NaN,NaN,trial_right,yellowBox.png,redBox.png,yellowBox.png,al1_con.png,21,10,NaN,NaN,0.15,0.85,0,1,0,1,Volatile,Stable,1.857,0.5,1.294,2.916,expert
51,1671576202044,20/12/2022 22:43:22,1671576202034,0,20/12/2022 22:43:22,109680,37,task-v1fs,repeat-u7ds#1->-repeat-l3h2#1->-repeat-pi7a#1->-repeat-apgu#1,26065502,BLIND,7681389,NaN,complete,NaN,NaN,computer,Desktop or Laptop,Mac OS 10.15.7,Safari 14.1.2,1440x900,1440x820,End of Day 1,SLS,90,B,NaN,NaN,NaN,Pass,End of Day 1,Pass,NaN,Pass,NaN,Pass,schedule_A,schedule_A,11,6,3,offer,Zone2,response_button_image,643,NaN,NaN,redBox.png,1,0,1,0,NaN,NaN,NaN,NaN,NaN,trial_right,yellowBox.png,redBox.png,yellowBox.png,al1_con.png,21,10,NaN,NaN,0.15,0.85,0,1,0,1,Volatile,Stable,1.857,0.5,1.294,2.916,expert
52,1671576204044,20/12/2022 22:43:24,1671576204028,0,20/12/2022 22:43:24,109680,37,task-v1fs,repeat-u7ds#1->-repeat-l3h2#1->-repeat-pi7a#1->-repeat-apgu#1,26065502,BLIND,7681389,NaN,complete,NaN,NaN,computer,Desktop or Laptop,Mac OS 10.15.7,Safari 14.1.2,1440x900,1440x820,End of Day 1,SLS,90,B,NaN,NaN,NaN,Pass,End of Day 1,Pass,NaN,Pass,NaN,Pass,schedule_A,schedule_A,11,6,4,feedback_l,Zone7,timelimit_screen,2000,NaN,NaN,,NaN,0,1,0,NaN,NaN,1,NaN,NaN,trial_right,yellowBox.png,redBox.png,yellowBox.png,al1_con.png,21,10,NaN,NaN,0.15,0.85,0,1,0,1,Volatile,Stable,1.857,0.5,1.294,2.916,expert
53,1671576204196,20/12/2022 22:43:24,1671576204177,0,20/12/2022 22:43:24,109680,37,task-v1fs,repeat-u7ds#1->-repeat-l3h2#1->-repeat-pi7a#1->-repeat-apgu#1,26065502,BLIND,7681389,NaN,complete,NaN,NaN,computer,Desktop or Laptop,Mac OS 10.15.7,Safari 14.1.2,1440x900,1440x820,End of Day 1,SLS,90,B,NaN,NaN,NaN,Pass,End of Day 1,Pass,NaN,Pass,NaN,Pass,schedule_A,schedule_A,11,6,6,end,Zone1,timelimit_screen,150,NaN,NaN,,NaN,0,1,0,NaN,NaN,1,NaN,NaN,trial_right,yellowBox.png,redBox.png,yellowBox.png,al1_con.png,21,10,NaN,NaN,0.15,0.85,0,1,0,1,Volatile,Stable,1.857,0.5,1.294,2.916,expert
54,1671576204776,20/12/2022 22:43:24,1671576204764,0,20/12/2022 22:43:24,109680,37,task-v1fs,repeat-u7ds#1->-repeat-l3h2#1->-repeat-pi7a#1->-repeat-apgu#1,26065502,BLIND,7681389,NaN,complete,NaN,NaN,computer,Desktop or Laptop,Mac OS 10.15.7,Safari 14.1.2,1440x900,1440x820,End of Day 1,SLS,90,B,NaN,NaN,NaN,Pass,End of Day 1,Pass,NaN,Pass,NaN,Pass,schedule_A,schedule_A,12,5,1,Screen 1,Zone1,continue_button,563,NaN,NaN,,NaN,0,1,0,NaN,NaN,NaN,NaN,NaN,trial_left,redBox.png,redBox.png,yellowBox.png,al1_con.png,22,11,NaN,NaN,0.85,0.85,1,1,1,1,Volatile,Stable,1.126,1.849,1.483,1.689,expert
55,1671576205784,20/12/2022 22:43:25,1671576205761,0,20/12/2022 22:43:25,109680,37,task-v1fs,repeat-u7ds#1->-repeat-l3h2#1->-repeat-pi7a#1->-repeat-apgu#1,26065502,BLIND,7681389,NaN,complete,NaN,NaN,computer,Desktop or Laptop,Mac OS 10.15.7,Safari 14.1.2,1440x900,1440x820,End of Day 1,SLS,90,B,NaN,NaN,NaN,Pass,End of Day 1,Pass,NaN,Pass,NaN,Pass,schedule_A,schedule_A,12,5,2,individual,Zone4,timelimit_screen,1000,NaN,NaN,,NaN,0,1,0,NaN,NaN,1,NaN,NaN,trial_left,redBox.png,redBox.png,yellowBox.png,al1_con.png,22,11,NaN,NaN,0.85,0.85,1,1,1,1,Volatile,Stable,1.126,1.849,1.483,1.689,expert
56,1671576206830,20/12/2022 22:43:26,1671576206806,0,20/12/2022 22:43:26,109680,37,task-v1fs,repeat-u7ds#1->-repeat-l3h2#1->-repeat-pi7a#1->-repeat-apgu#1,26065502,BLIND,7681389,NaN,complete,NaN,NaN,computer,Desktop or Laptop,Mac OS 10.15.7,Safari 14.1.2,1440x900,1440x820,End of Day 1,SLS,90,B,NaN,NaN,NaN,Pass,End of Day 1,Pass,NaN,Pass,NaN,Pass,schedule_A,schedule_A,12,5,3,offer,Zone2,response_button_image,1030.00000000001,NaN,NaN,redBox.png,1,1,0,0,NaN,NaN,NaN,NaN,NaN,trial_left,redBox.png,redBox.png,yellowBox.png,al1_con.png,22,11,NaN,NaN,0.85,0.85,1,1,1,1,Volatile,Stable,1.126,1.849,1.483,1.689,expert
57,1671576208813,20/12/2022 22:43:28,1671576208794,0,20/12/2022 22:43:28,109680,37,task-v1fs,repeat-u7ds#1->-repeat-l3h2#1->-repeat-pi7a#1->-repeat-apgu#1,26065502,BLIND,7681389,NaN,complete,NaN,NaN,computer,Desktop or Laptop,Mac OS 10.15.7,Safari 14.1.2,1440x900,1440x820,End of Day 1,SLS,90,B,NaN,NaN,NaN,Pass,End of Day 1,Pass,NaN,Pass,NaN,Pass,schedule_A,schedule_A,12,5,4,feedback_l,Zone7,timelimit_screen,2000,NaN,NaN,,NaN,0,1,0,NaN,NaN,1,NaN,NaN,trial_left,redBox.png,redBox.png,yellowBox.png,al1_con.png,22,11,NaN,NaN,0.85,0.85,1,1,1,1,Volatile,Stable,1.126,1.849,1.483,1.689,expert
58,1671576208961,20/12/2022 22:43:28,1671576208943,0,20/12/2022 22:43:28,109680,37,task-v1fs,repeat-u7ds#1->-repeat-l3h2#1->-repeat-pi7a#1->-repeat-apgu#1,26065502,BLIND,7681389,NaN,complete,NaN,NaN,computer,Desktop or Laptop,Mac OS 10.15.7,Safari 14.1.2,1440x900,1440x820,End of Day 1,SLS,90,B,NaN,NaN,NaN,Pass,End of Day 1,Pass,NaN,Pass,NaN,Pass,schedule_A,schedule_A,12,5,6,end,Zone1,timelimit_screen,149,NaN,NaN,,NaN,0,1,0,NaN,NaN,1,NaN,NaN,trial_left,redBox.png,redBox.png,yellowBox.png,al1_con.png,22,11,NaN,NaN,0.85,0.85,1,1,1,1,Volatile,Stable,1.126,1.849,1.483,1.689,expert
59,1671576210018,20/12/2022 22:43:30,1671576210006,0,20/12/2022 22:43:30,109680,37,task-v1fs,repeat-u7ds#1->-repeat-l3h2#1->-repeat-pi7a#1->-repeat-apgu#1,26065502,BLIND,7681389,NaN,complete,NaN,NaN,computer,Desktop or Laptop,Mac OS 10.15.7,Safari 14.1.2,1440x900,1440x820,End of Day 1,SLS,90,B,NaN,NaN,NaN,Pass,End of Day 1,Pass,NaN,Pass,NaN,Pass,schedule_A,schedule_A,13,7,1,Screen 1,Zone1,continue_button,1042,NaN,NaN,,NaN,0,1,0,NaN,NaN,NaN,NaN,NaN,trial_right,redBox.png,yellowBox.png,redBox.png,al1_con.png,23,12,NaN,NaN,0.85,0.85,1,1,1,0,Volatile,Stable,2.361,0.992,0.5,1.975,expert
60,1671576211027,20/12/2022 22:43:31,1671576210995,0,20/12/2022 22:43:30,109680,37,task-v1fs,repeat-u7ds#1->-repeat-l3h2#1->-repeat-pi7a#1->-repeat-apgu#1,26065502,BLIND,7681389,NaN,complete,NaN,NaN,computer,Desktop or Laptop,Mac OS 10.15.7,Safari 14.1.2,1440x900,1440x820,End of Day 1,SLS,90,B,NaN,NaN,NaN,Pass,End of Day 1,Pass,NaN,Pass,NaN,Pass,schedule_A,schedule_A,13,7,2,individual,Zone4,timelimit_screen,1000,NaN,NaN,,NaN,0,1,0,NaN,NaN,1,NaN,NaN,trial_right,redBox.png,yellowBox.png,redBox.png,al1_con.png,23,12,NaN,NaN,0.85,0.85,1,1,1,0,Volatile,Stable,2.361,0.992,0.5,1.975,expert
61,1671576211687,20/12/2022 22:43:31,1671576211670,0,20/12/2022 22:43:31,109680,37,task-v1fs,repeat-u7ds#1->-repeat-l3h2#1->-repeat-pi7a#1->-repeat-apgu#1,26065502,BLIND,7681389,NaN,complete,NaN,NaN,computer,Desktop or Laptop,Mac OS 10.15.7,Safari 14.1.2,1440x900,1440x820,End of Day 1,SLS,90,B,NaN,NaN,NaN,Pass,End of Day 1,Pass,NaN,Pass,NaN,Pass,schedule_A,schedule_A,13,7,3,offer,Zone3,response_button_image,662,NaN,NaN,redBox.png,1,1,0,0,NaN,NaN,NaN,NaN,NaN,trial_right,redBox.png,yellowBox.png,redBox.png,al1_con.png,23,12,NaN,NaN,0.85,0.85,1,1,1,0,Volatile,Stable,2.361,0.992,0.5,1.975,expert
62,1671576213674,20/12/2022 22:43:33,1671576213659,0,20/12/2022 22:43:33,109680,37,task-v1fs,repeat-u7ds#1->-repeat-l3h2#1->-repeat-pi7a#1->-repeat-apgu#1,26065502,BLIND,7681389,NaN,complete,NaN,NaN,computer,Desktop or Laptop,Mac OS 10.15.7,Safari 14.1.2,1440x900,1440x820,End of Day 1,SLS,90,B,NaN,NaN,NaN,Pass,End of Day 1,Pass,NaN,Pass,NaN,Pass,schedule_A,schedule_A,13,7,5,feedback_r,Zone7,timelimit_screen,2000,NaN,NaN,,NaN,0,1,0,NaN,NaN,1,NaN,NaN,trial_right,redBox.png,yellowBox.png,redBox.png,al1_con.png,23,12,NaN,NaN,0.85,0.85,1,1,1,0,Volatile,Stable,2.361,0.992,0.5,1.975,expert
63,1671576213832,20/12/2022 22:43:33,1671576213810,0,20/12/2022 22:43:33,109680,37,task-v1fs,repeat-u7ds#1->-repeat-l3h2#1->-repeat-pi7a#1->-repeat-apgu#1,26065502,BLIND,7681389,NaN,complete,NaN,NaN,computer,Desktop or Laptop,Mac OS 10.15.7,Safari 14.1.2,1440x900,1440x820,End of Day 1,SLS,90,B,NaN,NaN,NaN,Pass,End of Day 1,Pass,NaN,Pass,NaN,Pass,schedule_A,schedule_A,13,7,6,end,Zone1,timelimit_screen,151,NaN,NaN,,NaN,0,1,0,NaN,NaN,1,NaN,NaN,trial_right,redBox.png,yellowBox.png,redBox.png,al1_con.png,23,12,NaN,NaN,0.85,0.85,1,1,1,0,Volatile,Stable,2.361,0.992,0.5,1.975,expert
64,1671576214363,20/12/2022 22:43:34,1671576214341,0,20/12/2022 22:43:34,109680,37,task-v1fs,repeat-u7ds#1->-repeat-l3h2#1->-repeat-pi7a#1->-repeat-apgu#1,26065502,BLIND,7681389,NaN,complete,NaN,NaN,computer,Desktop or Laptop,Mac OS 10.15.7,Safari 14.1.2,1440x900,1440x820,End of Day 1,SLS,90,B,NaN,NaN,NaN,Pass,End of Day 1,Pass,NaN,Pass,NaN,Pass,schedule_A,schedule_A,14,8,1,Screen 1,Zone1,continue_button,514,NaN,NaN,,NaN,0,1,0,NaN,NaN,NaN,NaN,NaN,trial_right,redBox.png,redBox.png,yellowBox.png,al1_con.png,24,13,NaN,NaN,0.85,0.85,1,0,0,1,Volatile,Stable,1.05,1.95,1.319,1.487,expert
65,1671576215344,20/12/2022 22:43:35,1671576215329,0,20/12/2022 22:43:35,109680,37,task-v1fs,repeat-u7ds#1->-repeat-l3h2#1->-repeat-pi7a#1->-repeat-apgu#1,26065502,BLIND,7681389,NaN,complete,NaN,NaN,computer,Desktop or Laptop,Mac OS 10.15.7,Safari 14.1.2,1440x900,1440x820,End of Day 1,SLS,90,B,NaN,NaN,NaN,Pass,End of Day 1,Pass,NaN,Pass,NaN,Pass,schedule_A,schedule_A,14,8,2,individual,Zone4,timelimit_screen,1000,NaN,NaN,,NaN,0,1,0,NaN,NaN,1,NaN,NaN,trial_right,redBox.png,redBox.png,yellowBox.png,al1_con.png,24,13,NaN,NaN,0.85,0.85,1,0,0,1,Volatile,Stable,1.05,1.95,1.319,1.487,expert
66,1671576216347,20/12/2022 22:43:36,1671576216329,0,20/12/2022 22:43:36,109680,37,task-v1fs,repeat-u7ds#1->-repeat-l3h2#1->-repeat-pi7a#1->-repeat-apgu#1,26065502,BLIND,7681389,NaN,complete,NaN,NaN,computer,Desktop or Laptop,Mac OS 10.15.7,Safari 14.1.2,1440x900,1440x820,End of Day 1,SLS,90,B,NaN,NaN,NaN,Pass,End of Day 1,Pass,NaN,Pass,NaN,Pass,schedule_A,schedule_A,14,8,3,offer,Zone2,response_button_image,987,NaN,NaN,redBox.png,1,1,0,0,NaN,NaN,NaN,NaN,NaN,trial_right,redBox.png,redBox.png,yellowBox.png,al1_con.png,24,13,NaN,NaN,0.85,0.85,1,0,0,1,Volatile,Stable,1.05,1.95,1.319,1.487,expert
67,1671576218345,20/12/2022 22:43:38,1671576218327,0,20/12/2022 22:43:38,109680,37,task-v1fs,repeat-u7ds#1->-repeat-l3h2#1->-repeat-pi7a#1->-repeat-apgu#1,26065502,BLIND,7681389,NaN,complete,NaN,NaN,computer,Desktop or Laptop,Mac OS 10.15.7,Safari 14.1.2,1440x900,1440x820,End of Day 1,SLS,90,B,NaN,NaN,NaN,Pass,End of Day 1,Pass,NaN,Pass,NaN,Pass,schedule_A,schedule_A,14,8,4,feedback_l,Zone7,timelimit_screen,1999,NaN,NaN,,NaN,0,1,0,NaN,NaN,1,NaN,NaN,trial_right,redBox.png,redBox.png,yellowBox.png,al1_con.png,24,13,NaN,NaN,0.85,0.85,1,0,0,1,Volatile,Stable,1.05,1.95,1.319,1.487,expert
68,1671576218498,20/12/2022 22:43:38,1671576218476,0,20/12/2022 22:43:38,109680,37,task-v1fs,repeat-u7ds#1->-repeat-l3h2#1->-repeat-pi7a#1->-repeat-apgu#1,26065502,BLIND,7681389,NaN,complete,NaN,NaN,computer,Desktop or Laptop,Mac OS 10.15.7,Safari 14.1.2,1440x900,1440x820,End of Day 1,SLS,90,B,NaN,NaN,NaN,Pass,End of Day 1,Pass,NaN,Pass,NaN,Pass,schedule_A,schedule_A,14,8,6,end,Zone1,timelimit_screen,150,NaN,NaN,,NaN,0,1,0,NaN,NaN,1,NaN,NaN,trial_right,redBox.png,redBox.png,yellowBox.png,al1_con.png,24,13,NaN,NaN,0.85,0.85,1,0,0,1,Volatile,Stable,1.05,1.95,1.319,1.487,expert
69,1671576219269,20/12/2022 22:43:39,1671576219251,0,20/12/2022 22:43:39,109680,37,task-v1fs,repeat-u7ds#1->-repeat-l3h2#1->-repeat-pi7a#1->-repeat-apgu#1,26065502,BLIND,7681389,NaN,complete,NaN,NaN,computer,Desktop or Laptop,Mac OS 10.15.7,Safari 14.1.2,1440x900,1440x820,End of Day 1,SLS,90,B,NaN,NaN,NaN,Pass,End of Day 1,Pass,NaN,Pass,NaN,Pass,schedule_A,schedule_A,15,9,1,Screen 1,Zone1,continue_button,749,NaN,NaN,,NaN,0,1,0,NaN,NaN,NaN,NaN,NaN,trial_right,redBox.png,yellowBox.png,redBox.png,al1_con.png,25,14,NaN,NaN,0.85,0.85,1,1,1,0,Volatile,Stable,3.395,0.84,0.803,1.252,expert
70,1671576220270,20/12/2022 22:43:40,1671576220244,0,20/12/2022 22:43:40,109680,37,task-v1fs,repeat-u7ds#1->-repeat-l3h2#1->-repeat-pi7a#1->-repeat-apgu#1,26065502,BLIND,7681389,NaN,complete,NaN,NaN,computer,Desktop or Laptop,Mac OS 10.15.7,Safari 14.1.2,1440x900,1440x820,End of Day 1,SLS,90,B,NaN,NaN,NaN,Pass,End of Day 1,Pass,NaN,Pass,NaN,Pass,schedule_A,schedule_A,15,9,2,individual,Zone4,timelimit_screen,1000,NaN,NaN,,NaN,0,1,0,NaN,NaN,1,NaN,NaN,trial_right,redBox.png,yellowBox.png,redBox.png,al1_con.png,25,14,NaN,NaN,0.85,0.85,1,1,1,0,Volatile,Stable,3.395,0.84,0.803,1.252,expert
71,1671576221048,20/12/2022 22:43:41,1671576221029,0,20/12/2022 22:43:41,109680,37,task-v1fs,repeat-u7ds#1->-repeat-l3h2#1->-repeat-pi7a#1->-repeat-apgu#1,26065502,BLIND,7681389,NaN,complete,NaN,NaN,computer,Desktop or Laptop,Mac OS 10.15.7,Safari 14.1.2,1440x900,1440x820,End of Day 1,SLS,90,B,NaN,NaN,NaN,Pass,End of Day 1,Pass,NaN,Pass,NaN,Pass,schedule_A,schedule_A,15,9,3,offer,Zone3,response_button_image,772,NaN,NaN,redBox.png,1,1,0,0,NaN,NaN,NaN,NaN,NaN,trial_right,redBox.png,yellowBox.png,redBox.png,al1_con.png,25,14,NaN,NaN,0.85,0.85,1,1,1,0,Volatile,Stable,3.395,0.84,0.803,1.252,expert
72,1671576223047,20/12/2022 22:43:43,1671576223026,0,20/12/2022 22:43:43,109680,37,task-v1fs,repeat-u7ds#1->-repeat-l3h2#1->-repeat-pi7a#1->-repeat-apgu#1,26065502,BLIND,7681389,NaN,complete,NaN,NaN,computer,Desktop or Laptop,Mac OS 10.15.7,Safari 14.1.2,1440x900,1440x820,End of Day 1,SLS,90,B,NaN,NaN,NaN,Pass,End of Day 1,Pass,NaN,Pass,NaN,Pass,schedule_A,schedule_A,15,9,5,feedback_r,Zone7,timelimit_screen,1999,NaN,NaN,,NaN,0,1,0,NaN,NaN,1,NaN,NaN,trial_right,redBox.png,yellowBox.png,redBox.png,al1_con.png,25,14,NaN,NaN,0.85,0.85,1,1,1,0,Volatile,Stable,3.395,0.84,0.803,1.252,expert
73,1671576223193,20/12/2022 22:43:43,1671576223177,0,20/12/2022 22:43:43,109680,37,task-v1fs,repeat-u7ds#1->-repeat-l3h2#1->-repeat-pi7a#1->-repeat-apgu#1,26065502,BLIND,7681389,NaN,complete,NaN,NaN,computer,Desktop or Laptop,Mac OS 10.15.7,Safari 14.1.2,1440x900,1440x820,End of Day 1,SLS,90,B,NaN,NaN,NaN,Pass,End of Day 1,Pass,NaN,Pass,NaN,Pass,schedule_A,schedule_A,15,9,6,end,Zone1,timelimit_screen,151,NaN,NaN,,NaN,0,1,0,NaN,NaN,1,NaN,NaN,trial_right,redBox.png,yellowBox.png,redBox.png,al1_con.png,25,14,NaN,NaN,0.85,0.85,1,1,1,0,Volatile,Stable,3.395,0.84,0.803,1.252,expert
74,1671576224312,20/12/2022 22:43:44,1671576224288,0,20/12/2022 22:43:44,109680,37,task-v1fs,repeat-u7ds#1->-repeat-l3h2#1->-repeat-pi7a#1->-repeat-apgu#1,26065502,BLIND,7681389,NaN,complete,NaN,NaN,computer,Desktop or Laptop,Mac OS 10.15.7,Safari 14.1.2,1440x900,1440x820,End of Day 1,SLS,90,B,NaN,NaN,NaN,Pass,End of Day 1,Pass,NaN,Pass,NaN,Pass,schedule_A,schedule_A,16,10,1,Screen 1,Zone1,continue_button,1095,NaN,NaN,,NaN,0,1,0,NaN,NaN,NaN,NaN,NaN,trial_right,yellowBox.png,redBox.png,yellowBox.png,al1_con.png,26,15,NaN,NaN,0.85,0.85,0,1,0,1,Volatile,Stable,2.689,1.067,1.697,2.731,expert
75,1671576225290,20/12/2022 22:43:45,1671576225278,0,20/12/2022 22:43:45,109680,37,task-v1fs,repeat-u7ds#1->-repeat-l3h2#1->-repeat-pi7a#1->-repeat-apgu#1,26065502,BLIND,7681389,NaN,complete,NaN,NaN,computer,Desktop or Laptop,Mac OS 10.15.7,Safari 14.1.2,1440x900,1440x820,End of Day 1,SLS,90,B,NaN,NaN,NaN,Pass,End of Day 1,Pass,NaN,Pass,NaN,Pass,schedule_A,schedule_A,16,10,2,individual,Zone4,timelimit_screen,1000,NaN,NaN,,NaN,0,1,0,NaN,NaN,1,NaN,NaN,trial_right,yellowBox.png,redBox.png,yellowBox.png,al1_con.png,26,15,NaN,NaN,0.85,0.85,0,1,0,1,Volatile,Stable,2.689,1.067,1.697,2.731,expert
76,1671576226532,20/12/2022 22:43:46,1671576226514,0,20/12/2022 22:43:46,109680,37,task-v1fs,repeat-u7ds#1->-repeat-l3h2#1->-repeat-pi7a#1->-repeat-apgu#1,26065502,BLIND,7681389,NaN,complete,NaN,NaN,computer,Desktop or Laptop,Mac OS 10.15.7,Safari 14.1.2,1440x900,1440x820,End of Day 1,SLS,90,B,NaN,NaN,NaN,Pass,End of Day 1,Pass,NaN,Pass,NaN,Pass,schedule_A,schedule_A,16,10,3,offer,Zone2,response_button_image,1224.00000000001,NaN,NaN,redBox.png,1,0,1,0,NaN,NaN,NaN,NaN,NaN,trial_right,yellowBox.png,redBox.png,yellowBox.png,al1_con.png,26,15,NaN,NaN,0.85,0.85,0,1,0,1,Volatile,Stable,2.689,1.067,1.697,2.731,expert
77,1671576228526,20/12/2022 22:43:48,1671576228510,0,20/12/2022 22:43:48,109680,37,task-v1fs,repeat-u7ds#1->-repeat-l3h2#1->-repeat-pi7a#1->-repeat-apgu#1,26065502,BLIND,7681389,NaN,complete,NaN,NaN,computer,Desktop or Laptop,Mac OS 10.15.7,Safari 14.1.2,1440x900,1440x820,End of Day 1,SLS,90,B,NaN,NaN,NaN,Pass,End of Day 1,Pass,NaN,Pass,NaN,Pass,schedule_A,schedule_A,16,10,4,feedback_l,Zone7,timelimit_screen,2000,NaN,NaN,,NaN,0,1,0,NaN,NaN,1,NaN,NaN,trial_right,yellowBox.png,redBox.png,yellowBox.png,al1_con.png,26,15,NaN,NaN,0.85,0.85,0,1,0,1,Volatile,Stable,2.689,1.067,1.697,2.731,expert
78,1671576228680,20/12/2022 22:43:48,1671576228660,0,20/12/2022 22:43:48,109680,37,task-v1fs,repeat-u7ds#1->-repeat-l3h2#1->-repeat-pi7a#1->-repeat-apgu#1,26065502,BLIND,7681389,NaN,complete,NaN,NaN,computer,Desktop or Laptop,Mac OS 10.15.7,Safari 14.1.2,1440x900,1440x820,End of Day 1,SLS,90,B,NaN,NaN,NaN,Pass,End of Day 1,Pass,NaN,Pass,NaN,Pass,schedule_A,schedule_A,16,10,6,end,Zone1,timelimit_screen,150,NaN,NaN,,NaN,0,1,0,NaN,NaN,1,NaN,NaN,trial_right,yellowBox.png,redBox.png,yellowBox.png,al1_con.png,26,15,NaN,NaN,0.85,0.85,0,1,0,1,Volatile,Stable,2.689,1.067,1.697,2.731,expert
79,1671576229603,20/12/2022 22:43:49,1671576229576,0,20/12/2022 22:43:49,109680,37,task-v1fs,repeat-u7ds#1->-repeat-l3h2#1->-repeat-pi7a#1->-repeat-apgu#1,26065502,BLIND,7681389,NaN,complete,NaN,NaN,computer,Desktop or Laptop,Mac OS 10.15.7,Safari 14.1.2,1440x900,1440x820,End of Day 1,SLS,90,B,NaN,NaN,NaN,Pass,End of Day 1,Pass,NaN,Pass,NaN,Pass,schedule_A,schedule_A,17,6,1,Screen 1,Zone1,continue_button,891,NaN,NaN,,NaN,0,1,0,NaN,NaN,NaN,NaN,NaN,trial_left,yellowBox.png,yellowBox.png,redBox.png,al1_con.png,27,16,NaN,NaN,0.15,0.85,0,1,0,0,Volatile,Stable,1.378,0.689,0.878,2.076,expert
80,1671576230579,20/12/2022 22:43:50,1671576230560,0,20/12/2022 22:43:50,109680,37,task-v1fs,repeat-u7ds#1->-repeat-l3h2#1->-repeat-pi7a#1->-repeat-apgu#1,26065502,BLIND,7681389,NaN,complete,NaN,NaN,computer,Desktop or Laptop,Mac OS 10.15.7,Safari 14.1.2,1440x900,1440x820,End of Day 1,SLS,90,B,NaN,NaN,NaN,Pass,End of Day 1,Pass,NaN,Pass,NaN,Pass,schedule_A,schedule_A,17,6,2,individual,Zone4,timelimit_screen,999,NaN,NaN,,NaN,0,1,0,NaN,NaN,1,NaN,NaN,trial_left,yellowBox.png,yellowBox.png,redBox.png,al1_con.png,27,16,NaN,NaN,0.15,0.85,0,1,0,0,Volatile,Stable,1.378,0.689,0.878,2.076,expert
81,1671576231733,20/12/2022 22:43:51,1671576231716,0,20/12/2022 22:43:51,109680,37,task-v1fs,repeat-u7ds#1->-repeat-l3h2#1->-repeat-pi7a#1->-repeat-apgu#1,26065502,BLIND,7681389,NaN,complete,NaN,NaN,computer,Desktop or Laptop,Mac OS 10.15.7,Safari 14.1.2,1440x900,1440x820,End of Day 1,SLS,90,B,NaN,NaN,NaN,Pass,End of Day 1,Pass,NaN,Pass,NaN,Pass,schedule_A,schedule_A,17,6,3,offer,Zone2,response_button_image,1146,NaN,NaN,yellowBox.png,1,1,0,0,NaN,NaN,NaN,NaN,NaN,trial_left,yellowBox.png,yellowBox.png,redBox.png,al1_con.png,27,16,NaN,NaN,0.15,0.85,0,1,0,0,Volatile,Stable,1.378,0.689,0.878,2.076,expert
82,1671576233729,20/12/2022 22:43:53,1671576233711,0,20/12/2022 22:43:53,109680,37,task-v1fs,repeat-u7ds#1->-repeat-l3h2#1->-repeat-pi7a#1->-repeat-apgu#1,26065502,BLIND,7681389,NaN,complete,NaN,NaN,computer,Desktop or Laptop,Mac OS 10.15.7,Safari 14.1.2,1440x900,1440x820,End of Day 1,SLS,90,B,NaN,NaN,NaN,Pass,End of Day 1,Pass,NaN,Pass,NaN,Pass,schedule_A,schedule_A,17,6,4,feedback_l,Zone7,timelimit_screen,2001,NaN,NaN,,NaN,0,1,0,NaN,NaN,1,NaN,NaN,trial_left,yellowBox.png,yellowBox.png,redBox.png,al1_con.png,27,16,NaN,NaN,0.15,0.85,0,1,0,0,Volatile,Stable,1.378,0.689,0.878,2.076,expert
83,1671576233874,20/12/2022 22:43:53,1671576233860,0,20/12/2022 22:43:53,109680,37,task-v1fs,repeat-u7ds#1->-repeat-l3h2#1->-repeat-pi7a#1->-repeat-apgu#1,26065502,BLIND,7681389,NaN,complete,NaN,NaN,computer,Desktop or Laptop,Mac OS 10.15.7,Safari 14.1.2,1440x900,1440x820,End of Day 1,SLS,90,B,NaN,NaN,NaN,Pass,End of Day 1,Pass,NaN,Pass,NaN,Pass,schedule_A,schedule_A,17,6,6,end,Zone1,timelimit_screen,150,NaN,NaN,,NaN,0,1,0,NaN,NaN,1,NaN,NaN,trial_left,yellowBox.png,yellowBox.png,redBox.png,al1_con.png,27,16,NaN,NaN,0.15,0.85,0,1,0,0,Volatile,Stable,1.378,0.689,0.878,2.076,expert
84,1671576234660,20/12/2022 22:43:54,1671576234624,0,20/12/2022 22:43:54,109680,37,task-v1fs,repeat-u7ds#1->-repeat-l3h2#1->-repeat-pi7a#1->-repeat-apgu#1,26065502,BLIND,7681389,NaN,complete,NaN,NaN,computer,Desktop or Laptop,Mac OS 10.15.7,Safari 14.1.2,1440x900,1440x820,End of Day 1,SLS,90,B,NaN,NaN,NaN,Pass,End of Day 1,Pass,NaN,Pass,NaN,Pass,schedule_A,schedule_A,18,11,1,Screen 1,Zone1,continue_button,741,NaN,NaN,,NaN,0,1,0,NaN,NaN,NaN,NaN,NaN,trial_right,yellowBox.png,redBox.png,yellowBox.png,al1_con.png,28,17,NaN,NaN,0.15,0.85,0,1,0,1,Volatile,Stable,2.714,0.739,1.975,1.134,expert
85,1671576235632,20/12/2022 22:43:55,1671576235612,0,20/12/2022 22:43:55,109680,37,task-v1fs,repeat-u7ds#1->-repeat-l3h2#1->-repeat-pi7a#1->-repeat-apgu#1,26065502,BLIND,7681389,NaN,complete,NaN,NaN,computer,Desktop or Laptop,Mac OS 10.15.7,Safari 14.1.2,1440x900,1440x820,End of Day 1,SLS,90,B,NaN,NaN,NaN,Pass,End of Day 1,Pass,NaN,Pass,NaN,Pass,schedule_A,schedule_A,18,11,2,individual,Zone4,timelimit_screen,1000,NaN,NaN,,NaN,0,1,0,NaN,NaN,1,NaN,NaN,trial_right,yellowBox.png,redBox.png,yellowBox.png,al1_con.png,28,17,NaN,NaN,0.15,0.85,0,1,0,1,Volatile,Stable,2.714,0.739,1.975,1.134,expert
86,1671576236380,20/12/2022 22:43:56,1671576236359,0,20/12/2022 22:43:56,109680,37,task-v1fs,repeat-u7ds#1->-repeat-l3h2#1->-repeat-pi7a#1->-repeat-apgu#1,26065502,BLIND,7681389,NaN,complete,NaN,NaN,computer,Desktop or Laptop,Mac OS 10.15.7,Safari 14.1.2,1440x900,1440x820,End of Day 1,SLS,90,B,NaN,NaN,NaN,Pass,End of Day 1,Pass,NaN,Pass,NaN,Pass,schedule_A,schedule_A,18,11,3,offer,Zone3,response_button_image,732,NaN,NaN,yellowBox.png,1,1,0,0,NaN,NaN,NaN,NaN,NaN,trial_right,yellowBox.png,redBox.png,yellowBox.png,al1_con.png,28,17,NaN,NaN,0.15,0.85,0,1,0,1,Volatile,Stable,2.714,0.739,1.975,1.134,expert
87,1671576238373,20/12/2022 22:43:58,1671576238344,0,20/12/2022 22:43:58,109680,37,task-v1fs,repeat-u7ds#1->-repeat-l3h2#1->-repeat-pi7a#1->-repeat-apgu#1,26065502,BLIND,7681389,NaN,complete,NaN,NaN,computer,Desktop or Laptop,Mac OS 10.15.7,Safari 14.1.2,1440x900,1440x820,End of Day 1,SLS,90,B,NaN,NaN,NaN,Pass,End of Day 1,Pass,NaN,Pass,NaN,Pass,schedule_A,schedule_A,18,11,5,feedback_r,Zone7,timelimit_screen,2000,NaN,NaN,,NaN,0,1,0,NaN,NaN,1,NaN,NaN,trial_right,yellowBox.png,redBox.png,yellowBox.png,al1_con.png,28,17,NaN,NaN,0.15,0.85,0,1,0,1,Volatile,Stable,2.714,0.739,1.975,1.134,expert
88,1671576238511,20/12/2022 22:43:58,1671576238493,0,20/12/2022 22:43:58,109680,37,task-v1fs,repeat-u7ds#1->-repeat-l3h2#1->-repeat-pi7a#1->-repeat-apgu#1,26065502,BLIND,7681389,NaN,complete,NaN,NaN,computer,Desktop or Laptop,Mac OS 10.15.7,Safari 14.1.2,1440x900,1440x820,End of Day 1,SLS,90,B,NaN,NaN,NaN,Pass,End of Day 1,Pass,NaN,Pass,NaN,Pass,schedule_A,schedule_A,18,11,6,end,Zone1,timelimit_screen,150,NaN,NaN,,NaN,0,1,0,NaN,NaN,1,NaN,NaN,trial_right,yellowBox.png,redBox.png,yellowBox.png,al1_con.png,28,17,NaN,NaN,0.15,0.85,0,1,0,1,Volatile,Stable,2.714,0.739,1.975,1.134,expert
89,1671576239022,20/12/2022 22:43:59,1671576239013,0,20/12/2022 22:43:59,109680,37,task-v1fs,repeat-u7ds#1->-repeat-l3h2#1->-repeat-pi7a#1->-repeat-apgu#1,26065502,BLIND,7681389,NaN,complete,NaN,NaN,computer,Desktop or Laptop,Mac OS 10.15.7,Safari 14.1.2,1440x900,1440x820,End of Day 1,SLS,90,B,NaN,NaN,NaN,Pass,End of Day 1,Pass,NaN,Pass,NaN,Pass,schedule_A,schedule_A,19,7,1,Screen 1,Zone1,continue_button,497,NaN,NaN,,NaN,0,1,0,NaN,NaN,NaN,NaN,NaN,trial_left,yellowBox.png,yellowBox.png,redBox.png,al1_con.png,29,18,NaN,NaN,0.15,0.85,0,1,0,0,Volatile,Stable,3.874,0.676,1.496,1.639,expert
90,1671576240031,20/12/2022 22:44:00,1671576240011,0,20/12/2022 22:44:00,109680,37,task-v1fs,repeat-u7ds#1->-repeat-l3h2#1->-repeat-pi7a#1->-repeat-apgu#1,26065502,BLIND,7681389,NaN,complete,NaN,NaN,computer,Desktop or Laptop,Mac OS 10.15.7,Safari 14.1.2,1440x900,1440x820,End of Day 1,SLS,90,B,NaN,NaN,NaN,Pass,End of Day 1,Pass,NaN,Pass,NaN,Pass,schedule_A,schedule_A,19,7,2,individual,Zone4,timelimit_screen,1000,NaN,NaN,,NaN,0,1,0,NaN,NaN,1,NaN,NaN,trial_left,yellowBox.png,yellowBox.png,redBox.png,al1_con.png,29,18,NaN,NaN,0.15,0.85,0,1,0,0,Volatile,Stable,3.874,0.676,1.496,1.639,expert
91,1671576241048,20/12/2022 22:44:01,1671576241032,0,20/12/2022 22:44:01,109680,37,task-v1fs,repeat-u7ds#1->-repeat-l3h2#1->-repeat-pi7a#1->-repeat-apgu#1,26065502,BLIND,7681389,NaN,complete,NaN,NaN,computer,Desktop or Laptop,Mac OS 10.15.7,Safari 14.1.2,1440x900,1440x820,End of Day 1,SLS,90,B,NaN,NaN,NaN,Pass,End of Day 1,Pass,NaN,Pass,NaN,Pass,schedule_A,schedule_A,19,7,3,offer,Zone2,response_button_image,1008.00000000001,NaN,NaN,yellowBox.png,1,1,0,0,NaN,NaN,NaN,NaN,NaN,trial_left,yellowBox.png,yellowBox.png,redBox.png,al1_con.png,29,18,NaN,NaN,0.15,0.85,0,1,0,0,Volatile,Stable,3.874,0.676,1.496,1.639,expert
92,1671576243040,20/12/2022 22:44:03,1671576243027,0,20/12/2022 22:44:03,109680,37,task-v1fs,repeat-u7ds#1->-repeat-l3h2#1->-repeat-pi7a#1->-repeat-apgu#1,26065502,BLIND,7681389,NaN,complete,NaN,NaN,computer,Desktop or Laptop,Mac OS 10.15.7,Safari 14.1.2,1440x900,1440x820,End of Day 1,SLS,90,B,NaN,NaN,NaN,Pass,End of Day 1,Pass,NaN,Pass,NaN,Pass,schedule_A,schedule_A,19,7,4,feedback_l,Zone7,timelimit_screen,2000,NaN,NaN,,NaN,0,1,0,NaN,NaN,1,NaN,NaN,trial_left,yellowBox.png,yellowBox.png,redBox.png,al1_con.png,29,18,NaN,NaN,0.15,0.85,0,1,0,0,Volatile,Stable,3.874,0.676,1.496,1.639,expert
93,1671576243195,20/12/2022 22:44:03,1671576243175,0,20/12/2022 22:44:03,109680,37,task-v1fs,repeat-u7ds#1->-repeat-l3h2#1->-repeat-pi7a#1->-repeat-apgu#1,26065502,BLIND,7681389,NaN,complete,NaN,NaN,computer,Desktop or Laptop,Mac OS 10.15.7,Safari 14.1.2,1440x900,1440x820,End of Day 1,SLS,90,B,NaN,NaN,NaN,Pass,End of Day 1,Pass,NaN,Pass,NaN,Pass,schedule_A,schedule_A,19,7,6,end,Zone1,timelimit_screen,149,NaN,NaN,,NaN,0,1,0,NaN,NaN,1,NaN,NaN,trial_left,yellowBox.png,yellowBox.png,redBox.png,al1_con.png,29,18,NaN,NaN,0.15,0.85,0,1,0,0,Volatile,Stable,3.874,0.676,1.496,1.639,expert
94,1671576243706,20/12/2022 22:44:03,1671576243688,0,20/12/2022 22:44:03,109680,37,task-v1fs,repeat-u7ds#1->-repeat-l3h2#1->-repeat-pi7a#1->-repeat-apgu#1,26065502,BLIND,7681389,NaN,complete,NaN,NaN,computer,Desktop or Laptop,Mac OS 10.15.7,Safari 14.1.2,1440x900,1440x820,End of Day 1,SLS,90,B,NaN,NaN,NaN,Pass,End of Day 1,Pass,NaN,Pass,NaN,Pass,schedule_A,schedule_A,20,12,1,Screen 1,Zone1,continue_button,496,NaN,NaN,,NaN,0,1,0,NaN,NaN,NaN,NaN,NaN,trial_right,yellowBox.png,yellowBox.png,redBox.png,al1_con.png,30,19,NaN,NaN,0.15,0.85,0,0,1,0,Volatile,Stable,1.252,1.193,0.853,2.681,expert
95,1671576244695,20/12/2022 22:44:04,1671576244678,0,20/12/2022 22:44:04,109680,37,task-v1fs,repeat-u7ds#1->-repeat-l3h2#1->-repeat-pi7a#1->-repeat-apgu#1,26065502,BLIND,7681389,NaN,complete,NaN,NaN,computer,Desktop or Laptop,Mac OS 10.15.7,Safari 14.1.2,1440x900,1440x820,End of Day 1,SLS,90,B,NaN,NaN,NaN,Pass,End of Day 1,Pass,NaN,Pass,NaN,Pass,schedule_A,schedule_A,20,12,2,individual,Zone4,timelimit_screen,1000,NaN,NaN,,NaN,0,1,0,NaN,NaN,1,NaN,NaN,trial_right,yellowBox.png,yellowBox.png,redBox.png,al1_con.png,30,19,NaN,NaN,0.15,0.85,0,0,1,0,Volatile,Stable,1.252,1.193,0.853,2.681,expert
96,1671576245629,20/12/2022 22:44:05,1671576245612,0,20/12/2022 22:44:05,109680,37,task-v1fs,repeat-u7ds#1->-repeat-l3h2#1->-repeat-pi7a#1->-repeat-apgu#1,26065502,BLIND,7681389,NaN,complete,NaN,NaN,computer,Desktop or Laptop,Mac OS 10.15.7,Safari 14.1.2,1440x900,1440x820,End of Day 1,SLS,90,B,NaN,NaN,NaN,Pass,End of Day 1,Pass,NaN,Pass,NaN,Pass,schedule_A,schedule_A,20,12,3,offer,Zone3,response_button_image,921,NaN,NaN,redBox.png,1,0,1,0,NaN,NaN,NaN,NaN,NaN,trial_right,yellowBox.png,yellowBox.png,redBox.png,al1_con.png,30,19,NaN,NaN,0.15,0.85,0,0,1,0,Volatile,Stable,1.252,1.193,0.853,2.681,expert
97,1671576247641,20/12/2022 22:44:07,1671576247611,0,20/12/2022 22:44:07,109680,37,task-v1fs,repeat-u7ds#1->-repeat-l3h2#1->-repeat-pi7a#1->-repeat-apgu#1,26065502,BLIND,7681389,NaN,complete,NaN,NaN,computer,Desktop or Laptop,Mac OS 10.15.7,Safari 14.1.2,1440x900,1440x820,End of Day 1,SLS,90,B,NaN,NaN,NaN,Pass,End of Day 1,Pass,NaN,Pass,NaN,Pass,schedule_A,schedule_A,20,12,5,feedback_r,Zone7,timelimit_screen,2000,NaN,NaN,,NaN,0,1,0,NaN,NaN,1,NaN,NaN,trial_right,yellowBox.png,yellowBox.png,redBox.png,al1_con.png,30,19,NaN,NaN,0.15,0.85,0,0,1,0,Volatile,Stable,1.252,1.193,0.853,2.681,expert
98,1671576247779,20/12/2022 22:44:07,1671576247760,0,20/12/2022 22:44:07,109680,37,task-v1fs,repeat-u7ds#1->-repeat-l3h2#1->-repeat-pi7a#1->-repeat-apgu#1,26065502,BLIND,7681389,NaN,complete,NaN,NaN,computer,Desktop or Laptop,Mac OS 10.15.7,Safari 14.1.2,1440x900,1440x820,End of Day 1,SLS,90,B,NaN,NaN,NaN,Pass,End of Day 1,Pass,NaN,Pass,NaN,Pass,schedule_A,schedule_A,20,12,6,end,Zone1,timelimit_screen,149,NaN,NaN,,NaN,0,1,0,NaN,NaN,1,NaN,NaN,trial_right,yellowBox.png,yellowBox.png,redBox.png,al1_con.png,30,19,NaN,NaN,0.15,0.85,0,0,1,0,Volatile,Stable,1.252,1.193,0.853,2.681,expert
99,1671576248493,20/12/2022 22:44:08,1671576248477,0,20/12/2022 22:44:08,109680,37,task-v1fs,repeat-u7ds#1->-repeat-l3h2#1->-repeat-pi7a#1->-repeat-apgu#1,26065502,BLIND,7681389,NaN,complete,NaN,NaN,computer,Desktop or Laptop,Mac OS 10.15.7,Safari 14.1.2,1440x900,1440x820,End of Day 1,SLS,90,B,NaN,NaN,NaN,Pass,End of Day 1,Pass,NaN,Pass,NaN,Pass,schedule_A,schedule_A,21,13,1,Screen 1,Zone1,continue_button,694,NaN,NaN,,NaN,0,1,0,NaN,NaN,NaN,NaN,NaN,trial_right,yellowBox.png,redBox.png,yellowBox.png,al1_con.png,41,20,NaN,NaN,0.15,0.85,0,1,0,1,Volatile,Stable,3.521,1.723,1.37,1.655,expert
100,1671576249475,20/12/2022 22:44:09,1671576249459,0,20/12/2022 22:44:09,109680,37,task-v1fs,repeat-u7ds#1->-repeat-l3h2#1->-repeat-pi7a#1->-repeat-apgu#1,26065502,BLIND,7681389,NaN,complete,NaN,NaN,computer,Desktop or Laptop,Mac OS 10.15.7,Safari 14.1.2,1440x900,1440x820,End of Day 1,SLS,90,B,NaN,NaN,NaN,Pass,End of Day 1,Pass,NaN,Pass,NaN,Pass,schedule_A,schedule_A,21,13,2,individual,Zone4,timelimit_screen,999,NaN,NaN,,NaN,0,1,0,NaN,NaN,1,NaN,NaN,trial_right,yellowBox.png,redBox.png,yellowBox.png,al1_con.png,41,20,NaN,NaN,0.15,0.85,0,1,0,1,Volatile,Stable,3.521,1.723,1.37,1.655,expert
101,1671576250222,20/12/2022 22:44:10,1671576250213,0,20/12/2022 22:44:10,109680,37,task-v1fs,repeat-u7ds#1->-repeat-l3h2#1->-repeat-pi7a#1->-repeat-apgu#1,26065502,BLIND,7681389,NaN,complete,NaN,NaN,computer,Desktop or Laptop,Mac OS 10.15.7,Safari 14.1.2,1440x900,1440x820,End of Day 1,SLS,90,B,NaN,NaN,NaN,Pass,End of Day 1,Pass,NaN,Pass,NaN,Pass,schedule_A,schedule_A,21,13,3,offer,Zone3,response_button_image,746,NaN,NaN,yellowBox.png,1,1,0,0,NaN,NaN,NaN,NaN,NaN,trial_right,yellowBox.png,redBox.png,yellowBox.png,al1_con.png,41,20,NaN,NaN,0.15,0.85,0,1,0,1,Volatile,Stable,3.521,1.723,1.37,1.655,expert
102,1671576252241,20/12/2022 22:44:12,1671576252209,0,20/12/2022 22:44:12,109680,37,task-v1fs,repeat-u7ds#1->-repeat-l3h2#1->-repeat-pi7a#1->-repeat-apgu#1,26065502,BLIND,7681389,NaN,complete,NaN,NaN,computer,Desktop or Laptop,Mac OS 10.15.7,Safari 14.1.2,1440x900,1440x820,End of Day 1,SLS,90,B,NaN,NaN,NaN,Pass,End of Day 1,Pass,NaN,Pass,NaN,Pass,schedule_A,schedule_A,21,13,5,feedback_r,Zone7,timelimit_screen,1999,NaN,NaN,,NaN,0,1,0,NaN,NaN,1,NaN,NaN,trial_right,yellowBox.png,redBox.png,yellowBox.png,al1_con.png,41,20,NaN,NaN,0.15,0.85,0,1,0,1,Volatile,Stable,3.521,1.723,1.37,1.655,expert
103,1671576252382,20/12/2022 22:44:12,1671576252360,0,20/12/2022 22:44:12,109680,37,task-v1fs,repeat-u7ds#1->-repeat-l3h2#1->-repeat-pi7a#1->-repeat-apgu#1,26065502,BLIND,7681389,NaN,complete,NaN,NaN,computer,Desktop or Laptop,Mac OS 10.15.7,Safari 14.1.2,1440x900,1440x820,End of Day 1,SLS,90,B,NaN,NaN,NaN,Pass,End of Day 1,Pass,NaN,Pass,NaN,Pass,schedule_A,schedule_A,21,13,6,end,Zone1,timelimit_screen,150,NaN,NaN,,NaN,0,1,0,NaN,NaN,1,NaN,NaN,trial_right,yellowBox.png,redBox.png,yellowBox.png,al1_con.png,41,20,NaN,NaN,0.15,0.85,0,1,0,1,Volatile,Stable,3.521,1.723,1.37,1.655,expert
104,1671576252888,20/12/2022 22:44:12,1671576252869,0,20/12/2022 22:44:12,109680,37,task-v1fs,repeat-u7ds#1->-repeat-l3h2#1->-repeat-pi7a#1->-repeat-apgu#1,26065502,BLIND,7681389,NaN,complete,NaN,NaN,computer,Desktop or Laptop,Mac OS 10.15.7,Safari 14.1.2,1440x900,1440x820,End of Day 1,SLS,90,B,NaN,NaN,NaN,Pass,End of Day 1,Pass,NaN,Pass,NaN,Pass,schedule_A,schedule_A,22,14,1,Screen 1,Zone1,continue_button,487,NaN,NaN,,NaN,0,1,0,NaN,NaN,NaN,NaN,NaN,trial_right,redBox.png,yellowBox.png,redBox.png,al1_con.png,42,21,NaN,NaN,0.85,0.85,1,1,1,0,Stable,Stable,2.336,0.651,1.685,2.882,expert
105,1671576253880,20/12/2022 22:44:13,1671576253860,0,20/12/2022 22:44:13,109680,37,task-v1fs,repeat-u7ds#1->-repeat-l3h2#1->-repeat-pi7a#1->-repeat-apgu#1,26065502,BLIND,7681389,NaN,complete,NaN,NaN,computer,Desktop or Laptop,Mac OS 10.15.7,Safari 14.1.2,1440x900,1440x820,End of Day 1,SLS,90,B,NaN,NaN,NaN,Pass,End of Day 1,Pass,NaN,Pass,NaN,Pass,schedule_A,schedule_A,22,14,2,individual,Zone4,timelimit_screen,1001,NaN,NaN,,NaN,0,1,0,NaN,NaN,1,NaN,NaN,trial_right,redBox.png,yellowBox.png,redBox.png,al1_con.png,42,21,NaN,NaN,0.85,0.85,1,1,1,0,Stable,Stable,2.336,0.651,1.685,2.882,expert
106,1671576254596,20/12/2022 22:44:14,1671576254579,0,20/12/2022 22:44:14,109680,37,task-v1fs,repeat-u7ds#1->-repeat-l3h2#1->-repeat-pi7a#1->-repeat-apgu#1,26065502,BLIND,7681389,NaN,complete,NaN,NaN,computer,Desktop or Laptop,Mac OS 10.15.7,Safari 14.1.2,1440x900,1440x820,End of Day 1,SLS,90,B,NaN,NaN,NaN,Pass,End of Day 1,Pass,NaN,Pass,NaN,Pass,schedule_A,schedule_A,22,14,3,offer,Zone2,response_button_image,712,NaN,NaN,yellowBox.png,1,0,1,0,NaN,NaN,NaN,NaN,NaN,trial_right,redBox.png,yellowBox.png,redBox.png,al1_con.png,42,21,NaN,NaN,0.85,0.85,1,1,1,0,Stable,Stable,2.336,0.651,1.685,2.882,expert
107,1671576256591,20/12/2022 22:44:16,1671576256578,0,20/12/2022 22:44:16,109680,37,task-v1fs,repeat-u7ds#1->-repeat-l3h2#1->-repeat-pi7a#1->-repeat-apgu#1,26065502,BLIND,7681389,NaN,complete,NaN,NaN,computer,Desktop or Laptop,Mac OS 10.15.7,Safari 14.1.2,1440x900,1440x820,End of Day 1,SLS,90,B,NaN,NaN,NaN,Pass,End of Day 1,Pass,NaN,Pass,NaN,Pass,schedule_A,schedule_A,22,14,4,feedback_l,Zone7,timelimit_screen,2000,NaN,NaN,,NaN,0,1,0,NaN,NaN,1,NaN,NaN,trial_right,redBox.png,yellowBox.png,redBox.png,al1_con.png,42,21,NaN,NaN,0.85,0.85,1,1,1,0,Stable,Stable,2.336,0.651,1.685,2.882,expert
108,1671576256758,20/12/2022 22:44:16,1671576256727,0,20/12/2022 22:44:16,109680,37,task-v1fs,repeat-u7ds#1->-repeat-l3h2#1->-repeat-pi7a#1->-repeat-apgu#1,26065502,BLIND,7681389,NaN,complete,NaN,NaN,computer,Desktop or Laptop,Mac OS 10.15.7,Safari 14.1.2,1440x900,1440x820,End of Day 1,SLS,90,B,NaN,NaN,NaN,Pass,End of Day 1,Pass,NaN,Pass,NaN,Pass,schedule_A,schedule_A,22,14,6,end,Zone1,timelimit_screen,150,NaN,NaN,,NaN,0,1,0,NaN,NaN,1,NaN,NaN,trial_right,redBox.png,yellowBox.png,redBox.png,al1_con.png,42,21,NaN,NaN,0.85,0.85,1,1,1,0,Stable,Stable,2.336,0.651,1.685,2.882,expert
109,1671576257296,20/12/2022 22:44:17,1671576257274,0,20/12/2022 22:44:17,109680,37,task-v1fs,repeat-u7ds#1->-repeat-l3h2#1->-repeat-pi7a#1->-repeat-apgu#1,26065502,BLIND,7681389,NaN,complete,NaN,NaN,computer,Desktop or Laptop,Mac OS 10.15.7,Safari 14.1.2,1440x900,1440x820,End of Day 1,SLS,90,B,NaN,NaN,NaN,Pass,End of Day 1,Pass,NaN,Pass,NaN,Pass,schedule_A,schedule_A,23,15,1,Screen 1,Zone1,continue_button,524,NaN,NaN,,NaN,0,1,0,NaN,NaN,NaN,NaN,NaN,trial_right,redBox.png,yellowBox.png,redBox.png,al1_con.png,43,22,NaN,NaN,0.85,0.85,1,1,1,0,Stable,Stable,3.622,1.319,1.193,1.067,expert
110,1671576258274,20/12/2022 22:44:18,1671576258261,0,20/12/2022 22:44:18,109680,37,task-v1fs,repeat-u7ds#1->-repeat-l3h2#1->-repeat-pi7a#1->-repeat-apgu#1,26065502,BLIND,7681389,NaN,complete,NaN,NaN,computer,Desktop or Laptop,Mac OS 10.15.7,Safari 14.1.2,1440x900,1440x820,End of Day 1,SLS,90,B,NaN,NaN,NaN,Pass,End of Day 1,Pass,NaN,Pass,NaN,Pass,schedule_A,schedule_A,23,15,2,individual,Zone4,timelimit_screen,1001,NaN,NaN,,NaN,0,1,0,NaN,NaN,1,NaN,NaN,trial_right,redBox.png,yellowBox.png,redBox.png,al1_con.png,43,22,NaN,NaN,0.85,0.85,1,1,1,0,Stable,Stable,3.622,1.319,1.193,1.067,expert
111,1671576258809,20/12/2022 22:44:18,1671576258799,0,20/12/2022 22:44:18,109680,37,task-v1fs,repeat-u7ds#1->-repeat-l3h2#1->-repeat-pi7a#1->-repeat-apgu#1,26065502,BLIND,7681389,NaN,complete,NaN,NaN,computer,Desktop or Laptop,Mac OS 10.15.7,Safari 14.1.2,1440x900,1440x820,End of Day 1,SLS,90,B,NaN,NaN,NaN,Pass,End of Day 1,Pass,NaN,Pass,NaN,Pass,schedule_A,schedule_A,23,15,3,offer,Zone3,response_button_image,522,NaN,NaN,redBox.png,1,1,0,0,NaN,NaN,NaN,NaN,NaN,trial_right,redBox.png,yellowBox.png,redBox.png,al1_con.png,43,22,NaN,NaN,0.85,0.85,1,1,1,0,Stable,Stable,3.622,1.319,1.193,1.067,expert
112,1671576260824,20/12/2022 22:44:20,1671576260794,0,20/12/2022 22:44:20,109680,37,task-v1fs,repeat-u7ds#1->-repeat-l3h2#1->-repeat-pi7a#1->-repeat-apgu#1,26065502,BLIND,7681389,NaN,complete,NaN,NaN,computer,Desktop or Laptop,Mac OS 10.15.7,Safari 14.1.2,1440x900,1440x820,End of Day 1,SLS,90,B,NaN,NaN,NaN,Pass,End of Day 1,Pass,NaN,Pass,NaN,Pass,schedule_A,schedule_A,23,15,5,feedback_r,Zone7,timelimit_screen,2000,NaN,NaN,,NaN,0,1,0,NaN,NaN,1,NaN,NaN,trial_right,redBox.png,yellowBox.png,redBox.png,al1_con.png,43,22,NaN,NaN,0.85,0.85,1,1,1,0,Stable,Stable,3.622,1.319,1.193,1.067,expert
113,1671576260972,20/12/2022 22:44:20,1671576260944,0,20/12/2022 22:44:20,109680,37,task-v1fs,repeat-u7ds#1->-repeat-l3h2#1->-repeat-pi7a#1->-repeat-apgu#1,26065502,BLIND,7681389,NaN,complete,NaN,NaN,computer,Desktop or Laptop,Mac OS 10.15.7,Safari 14.1.2,1440x900,1440x820,End of Day 1,SLS,90,B,NaN,NaN,NaN,Pass,End of Day 1,Pass,NaN,Pass,NaN,Pass,schedule_A,schedule_A,23,15,6,end,Zone1,timelimit_screen,151,NaN,NaN,,NaN,0,1,0,NaN,NaN,1,NaN,NaN,trial_right,redBox.png,yellowBox.png,redBox.png,al1_con.png,43,22,NaN,NaN,0.85,0.85,1,1,1,0,Stable,Stable,3.622,1.319,1.193,1.067,expert
114,1671576261526,20/12/2022 22:44:21,1671576261492,0,20/12/2022 22:44:21,109680,37,task-v1fs,repeat-u7ds#1->-repeat-l3h2#1->-repeat-pi7a#1->-repeat-apgu#1,26065502,BLIND,7681389,NaN,complete,NaN,NaN,computer,Desktop or Laptop,Mac OS 10.15.7,Safari 14.1.2,1440x900,1440x820,End of Day 1,SLS,90,B,NaN,NaN,NaN,Pass,End of Day 1,Pass,NaN,Pass,NaN,Pass,schedule_A,schedule_A,24,8,1,Screen 1,Zone1,continue_button,525,NaN,NaN,,NaN,0,1,0,NaN,NaN,NaN,NaN,NaN,trial_left,redBox.png,redBox.png,yellowBox.png,al1_con.png,44,23,NaN,NaN,0.85,0.85,1,1,1,1,Stable,Stable,1.731,0.853,2,1.202,expert
115,1671576262490,20/12/2022 22:44:22,1671576262478,0,20/12/2022 22:44:22,109680,37,task-v1fs,repeat-u7ds#1->-repeat-l3h2#1->-repeat-pi7a#1->-repeat-apgu#1,26065502,BLIND,7681389,NaN,complete,NaN,NaN,computer,Desktop or Laptop,Mac OS 10.15.7,Safari 14.1.2,1440x900,1440x820,End of Day 1,SLS,90,B,NaN,NaN,NaN,Pass,End of Day 1,Pass,NaN,Pass,NaN,Pass,schedule_A,schedule_A,24,8,2,individual,Zone4,timelimit_screen,1000,NaN,NaN,,NaN,0,1,0,NaN,NaN,1,NaN,NaN,trial_left,redBox.png,redBox.png,yellowBox.png,al1_con.png,44,23,NaN,NaN,0.85,0.85,1,1,1,1,Stable,Stable,1.731,0.853,2,1.202,expert
116,1671576263110,20/12/2022 22:44:23,1671576263093,0,20/12/2022 22:44:23,109680,37,task-v1fs,repeat-u7ds#1->-repeat-l3h2#1->-repeat-pi7a#1->-repeat-apgu#1,26065502,BLIND,7681389,NaN,complete,NaN,NaN,computer,Desktop or Laptop,Mac OS 10.15.7,Safari 14.1.2,1440x900,1440x820,End of Day 1,SLS,90,B,NaN,NaN,NaN,Pass,End of Day 1,Pass,NaN,Pass,NaN,Pass,schedule_A,schedule_A,24,8,3,offer,Zone2,response_button_image,600,NaN,NaN,redBox.png,1,1,0,0,NaN,NaN,NaN,NaN,NaN,trial_left,redBox.png,redBox.png,yellowBox.png,al1_con.png,44,23,NaN,NaN,0.85,0.85,1,1,1,1,Stable,Stable,1.731,0.853,2,1.202,expert
117,1671576265089,20/12/2022 22:44:25,1671576265078,0,20/12/2022 22:44:25,109680,37,task-v1fs,repeat-u7ds#1->-repeat-l3h2#1->-repeat-pi7a#1->-repeat-apgu#1,26065502,BLIND,7681389,NaN,complete,NaN,NaN,computer,Desktop or Laptop,Mac OS 10.15.7,Safari 14.1.2,1440x900,1440x820,End of Day 1,SLS,90,B,NaN,NaN,NaN,Pass,End of Day 1,Pass,NaN,Pass,NaN,Pass,schedule_A,schedule_A,24,8,4,feedback_l,Zone7,timelimit_screen,2001,NaN,NaN,,NaN,0,1,0,NaN,NaN,1,NaN,NaN,trial_left,redBox.png,redBox.png,yellowBox.png,al1_con.png,44,23,NaN,NaN,0.85,0.85,1,1,1,1,Stable,Stable,1.731,0.853,2,1.202,expert
118,1671576265238,20/12/2022 22:44:25,1671576265227,0,20/12/2022 22:44:25,109680,37,task-v1fs,repeat-u7ds#1->-repeat-l3h2#1->-repeat-pi7a#1->-repeat-apgu#1,26065502,BLIND,7681389,NaN,complete,NaN,NaN,computer,Desktop or Laptop,Mac OS 10.15.7,Safari 14.1.2,1440x900,1440x820,End of Day 1,SLS,90,B,NaN,NaN,NaN,Pass,End of Day 1,Pass,NaN,Pass,NaN,Pass,schedule_A,schedule_A,24,8,6,end,Zone1,timelimit_screen,150,NaN,NaN,,NaN,0,1,0,NaN,NaN,1,NaN,NaN,trial_left,redBox.png,redBox.png,yellowBox.png,al1_con.png,44,23,NaN,NaN,0.85,0.85,1,1,1,1,Stable,Stable,1.731,0.853,2,1.202,expert
119,1671576266068,20/12/2022 22:44:26,1671576266038,0,20/12/2022 22:44:26,109680,37,task-v1fs,repeat-u7ds#1->-repeat-l3h2#1->-repeat-pi7a#1->-repeat-apgu#1,26065502,BLIND,7681389,NaN,complete,NaN,NaN,computer,Desktop or Laptop,Mac OS 10.15.7,Safari 14.1.2,1440x900,1440x820,End of Day 1,SLS,90,B,NaN,NaN,NaN,Pass,End of Day 1,Pass,NaN,Pass,NaN,Pass,schedule_A,schedule_A,25,16,1,Screen 1,Zone1,continue_button,786,NaN,NaN,,NaN,0,1,0,NaN,NaN,NaN,NaN,NaN,trial_right,redBox.png,yellowBox.png,redBox.png,al1_con.png,45,24,NaN,NaN,0.85,0.85,1,1,1,0,Stable,Stable,2.109,1.798,1.508,2.782,expert
120,1671576267193,20/12/2022 22:44:27,1671576267027,0,20/12/2022 22:44:27,109680,37,task-v1fs,repeat-u7ds#1->-repeat-l3h2#1->-repeat-pi7a#1->-repeat-apgu#1,26065502,BLIND,7681389,NaN,complete,NaN,NaN,computer,Desktop or Laptop,Mac OS 10.15.7,Safari 14.1.2,1440x900,1440x820,End of Day 1,SLS,90,B,NaN,NaN,NaN,Pass,End of Day 1,Pass,NaN,Pass,NaN,Pass,schedule_A,schedule_A,25,16,2,individual,Zone4,timelimit_screen,999,NaN,NaN,,NaN,0,1,0,NaN,NaN,1,NaN,NaN,trial_right,redBox.png,yellowBox.png,redBox.png,al1_con.png,45,24,NaN,NaN,0.85,0.85,1,1,1,0,Stable,Stable,2.109,1.798,1.508,2.782,expert
121,1671576267948,20/12/2022 22:44:27,1671576267938,0,20/12/2022 22:44:27,109680,37,task-v1fs,repeat-u7ds#1->-repeat-l3h2#1->-repeat-pi7a#1->-repeat-apgu#1,26065502,BLIND,7681389,NaN,complete,NaN,NaN,computer,Desktop or Laptop,Mac OS 10.15.7,Safari 14.1.2,1440x900,1440x820,End of Day 1,SLS,90,B,NaN,NaN,NaN,Pass,End of Day 1,Pass,NaN,Pass,NaN,Pass,schedule_A,schedule_A,25,16,3,offer,Zone3,response_button_image,899.999999999985,NaN,NaN,redBox.png,1,1,0,0,NaN,NaN,NaN,NaN,NaN,trial_right,redBox.png,yellowBox.png,redBox.png,al1_con.png,45,24,NaN,NaN,0.85,0.85,1,1,1,0,Stable,Stable,2.109,1.798,1.508,2.782,expert
122,1671576269954,20/12/2022 22:44:29,1671576269927,0,20/12/2022 22:44:29,109680,37,task-v1fs,repeat-u7ds#1->-repeat-l3h2#1->-repeat-pi7a#1->-repeat-apgu#1,26065502,BLIND,7681389,NaN,complete,NaN,NaN,computer,Desktop or Laptop,Mac OS 10.15.7,Safari 14.1.2,1440x900,1440x820,End of Day 1,SLS,90,B,NaN,NaN,NaN,Pass,End of Day 1,Pass,NaN,Pass,NaN,Pass,schedule_A,schedule_A,25,16,5,feedback_r,Zone7,timelimit_screen,1999,NaN,NaN,,NaN,0,1,0,NaN,NaN,1,NaN,NaN,trial_right,redBox.png,yellowBox.png,redBox.png,al1_con.png,45,24,NaN,NaN,0.85,0.85,1,1,1,0,Stable,Stable,2.109,1.798,1.508,2.782,expert
123,1671576270087,20/12/2022 22:44:30,1671576270076,0,20/12/2022 22:44:30,109680,37,task-v1fs,repeat-u7ds#1->-repeat-l3h2#1->-repeat-pi7a#1->-repeat-apgu#1,26065502,BLIND,7681389,NaN,complete,NaN,NaN,computer,Desktop or Laptop,Mac OS 10.15.7,Safari 14.1.2,1440x900,1440x820,End of Day 1,SLS,90,B,NaN,NaN,NaN,Pass,End of Day 1,Pass,NaN,Pass,NaN,Pass,schedule_A,schedule_A,25,16,6,end,Zone1,timelimit_screen,151,NaN,NaN,,NaN,0,1,0,NaN,NaN,1,NaN,NaN,trial_right,redBox.png,yellowBox.png,redBox.png,al1_con.png,45,24,NaN,NaN,0.85,0.85,1,1,1,0,Stable,Stable,2.109,1.798,1.508,2.782,expert
124,1671576270634,20/12/2022 22:44:30,1671576270615,0,20/12/2022 22:44:30,109680,37,task-v1fs,repeat-u7ds#1->-repeat-l3h2#1->-repeat-pi7a#1->-repeat-apgu#1,26065502,BLIND,7681389,NaN,complete,NaN,NaN,computer,Desktop or Laptop,Mac OS 10.15.7,Safari 14.1.2,1440x900,1440x820,End of Day 1,SLS,90,B,NaN,NaN,NaN,Pass,End of Day 1,Pass,NaN,Pass,NaN,Pass,schedule_A,schedule_A,26,9,1,Screen 1,Zone1,continue_button,525,NaN,NaN,,NaN,0,1,0,NaN,NaN,NaN,NaN,NaN,trial_left,redBox.png,redBox.png,yellowBox.png,al1_con.png,46,25,NaN,NaN,0.85,0.85,1,1,1,1,Stable,Stable,2.916,1.294,1.962,2.361,expert
125,1671576271633,20/12/2022 22:44:31,1671576271610,0,20/12/2022 22:44:31,109680,37,task-v1fs,repeat-u7ds#1->-repeat-l3h2#1->-repeat-pi7a#1->-repeat-apgu#1,26065502,BLIND,7681389,NaN,complete,NaN,NaN,computer,Desktop or Laptop,Mac OS 10.15.7,Safari 14.1.2,1440x900,1440x820,End of Day 1,SLS,90,B,NaN,NaN,NaN,Pass,End of Day 1,Pass,NaN,Pass,NaN,Pass,schedule_A,schedule_A,26,9,2,individual,Zone4,timelimit_screen,1000,NaN,NaN,,NaN,0,1,0,NaN,NaN,1,NaN,NaN,trial_left,redBox.png,redBox.png,yellowBox.png,al1_con.png,46,25,NaN,NaN,0.85,0.85,1,1,1,1,Stable,Stable,2.916,1.294,1.962,2.361,expert
126,1671576272360,20/12/2022 22:44:32,1671576272345,0,20/12/2022 22:44:32,109680,37,task-v1fs,repeat-u7ds#1->-repeat-l3h2#1->-repeat-pi7a#1->-repeat-apgu#1,26065502,BLIND,7681389,NaN,complete,NaN,NaN,computer,Desktop or Laptop,Mac OS 10.15.7,Safari 14.1.2,1440x900,1440x820,End of Day 1,SLS,90,B,NaN,NaN,NaN,Pass,End of Day 1,Pass,NaN,Pass,NaN,Pass,schedule_A,schedule_A,26,9,3,offer,Zone2,response_button_image,727,NaN,NaN,redBox.png,1,1,0,0,NaN,NaN,NaN,NaN,NaN,trial_left,redBox.png,redBox.png,yellowBox.png,al1_con.png,46,25,NaN,NaN,0.85,0.85,1,1,1,1,Stable,Stable,2.916,1.294,1.962,2.361,expert
127,1671576274352,20/12/2022 22:44:34,1671576274343,0,20/12/2022 22:44:34,109680,37,task-v1fs,repeat-u7ds#1->-repeat-l3h2#1->-repeat-pi7a#1->-repeat-apgu#1,26065502,BLIND,7681389,NaN,complete,NaN,NaN,computer,Desktop or Laptop,Mac OS 10.15.7,Safari 14.1.2,1440x900,1440x820,End of Day 1,SLS,90,B,NaN,NaN,NaN,Pass,End of Day 1,Pass,NaN,Pass,NaN,Pass,schedule_A,schedule_A,26,9,4,feedback_l,Zone7,timelimit_screen,2000,NaN,NaN,,NaN,0,1,0,NaN,NaN,1,NaN,NaN,trial_left,redBox.png,redBox.png,yellowBox.png,al1_con.png,46,25,NaN,NaN,0.85,0.85,1,1,1,1,Stable,Stable,2.916,1.294,1.962,2.361,expert
128,1671576274520,20/12/2022 22:44:34,1671576274494,0,20/12/2022 22:44:34,109680,37,task-v1fs,repeat-u7ds#1->-repeat-l3h2#1->-repeat-pi7a#1->-repeat-apgu#1,26065502,BLIND,7681389,NaN,complete,NaN,NaN,computer,Desktop or Laptop,Mac OS 10.15.7,Safari 14.1.2,1440x900,1440x820,End of Day 1,SLS,90,B,NaN,NaN,NaN,Pass,End of Day 1,Pass,NaN,Pass,NaN,Pass,schedule_A,schedule_A,26,9,6,end,Zone1,timelimit_screen,150,NaN,NaN,,NaN,0,1,0,NaN,NaN,1,NaN,NaN,trial_left,redBox.png,redBox.png,yellowBox.png,al1_con.png,46,25,NaN,NaN,0.85,0.85,1,1,1,1,Stable,Stable,2.916,1.294,1.962,2.361,expert
129,1671576275900,20/12/2022 22:44:35,1671576275891,0,20/12/2022 22:44:35,109680,37,task-v1fs,repeat-u7ds#1->-repeat-l3h2#1->-repeat-pi7a#1->-repeat-apgu#1,26065502,BLIND,7681389,NaN,complete,NaN,NaN,computer,Desktop or Laptop,Mac OS 10.15.7,Safari 14.1.2,1440x900,1440x820,End of Day 1,SLS,90,B,NaN,NaN,NaN,Pass,End of Day 1,Pass,NaN,Pass,NaN,Pass,schedule_A,schedule_A,27,17,1,Screen 1,Zone1,continue_button,1379,NaN,NaN,,NaN,0,1,0,NaN,NaN,NaN,NaN,NaN,trial_right,redBox.png,yellowBox.png,redBox.png,al1_con.png,47,26,NaN,NaN,0.85,0.85,1,1,1,0,Stable,Stable,2.487,1.697,1.13,1.286,expert
130,1671576276903,20/12/2022 22:44:36,1671576276878,0,20/12/2022 22:44:36,109680,37,task-v1fs,repeat-u7ds#1->-repeat-l3h2#1->-repeat-pi7a#1->-repeat-apgu#1,26065502,BLIND,7681389,NaN,complete,NaN,NaN,computer,Desktop or Laptop,Mac OS 10.15.7,Safari 14.1.2,1440x900,1440x820,End of Day 1,SLS,90,B,NaN,NaN,NaN,Pass,End of Day 1,Pass,NaN,Pass,NaN,Pass,schedule_A,schedule_A,27,17,2,individual,Zone4,timelimit_screen,1000,NaN,NaN,,NaN,0,1,0,NaN,NaN,1,NaN,NaN,trial_right,redBox.png,yellowBox.png,redBox.png,al1_con.png,47,26,NaN,NaN,0.85,0.85,1,1,1,0,Stable,Stable,2.487,1.697,1.13,1.286,expert
131,1671576277862,20/12/2022 22:44:37,1671576277854,0,20/12/2022 22:44:37,109680,37,task-v1fs,repeat-u7ds#1->-repeat-l3h2#1->-repeat-pi7a#1->-repeat-apgu#1,26065502,BLIND,7681389,NaN,complete,NaN,NaN,computer,Desktop or Laptop,Mac OS 10.15.7,Safari 14.1.2,1440x900,1440x820,End of Day 1,SLS,90,B,NaN,NaN,NaN,Pass,End of Day 1,Pass,NaN,Pass,NaN,Pass,schedule_A,schedule_A,27,17,3,offer,Zone3,response_button_image,964.000000000029,NaN,NaN,redBox.png,1,1,0,0,NaN,NaN,NaN,NaN,NaN,trial_right,redBox.png,yellowBox.png,redBox.png,al1_con.png,47,26,NaN,NaN,0.85,0.85,1,1,1,0,Stable,Stable,2.487,1.697,1.13,1.286,expert
132,1671576279870,20/12/2022 22:44:39,1671576279843,0,20/12/2022 22:44:39,109680,37,task-v1fs,repeat-u7ds#1->-repeat-l3h2#1->-repeat-pi7a#1->-repeat-apgu#1,26065502,BLIND,7681389,NaN,complete,NaN,NaN,computer,Desktop or Laptop,Mac OS 10.15.7,Safari 14.1.2,1440x900,1440x820,End of Day 1,SLS,90,B,NaN,NaN,NaN,Pass,End of Day 1,Pass,NaN,Pass,NaN,Pass,schedule_A,schedule_A,27,17,5,feedback_r,Zone7,timelimit_screen,1999,NaN,NaN,,NaN,0,1,0,NaN,NaN,1,NaN,NaN,trial_right,redBox.png,yellowBox.png,redBox.png,al1_con.png,47,26,NaN,NaN,0.85,0.85,1,1,1,0,Stable,Stable,2.487,1.697,1.13,1.286,expert
133,1671576280004,20/12/2022 22:44:40,1671576279993,0,20/12/2022 22:44:39,109680,37,task-v1fs,repeat-u7ds#1->-repeat-l3h2#1->-repeat-pi7a#1->-repeat-apgu#1,26065502,BLIND,7681389,NaN,complete,NaN,NaN,computer,Desktop or Laptop,Mac OS 10.15.7,Safari 14.1.2,1440x900,1440x820,End of Day 1,SLS,90,B,NaN,NaN,NaN,Pass,End of Day 1,Pass,NaN,Pass,NaN,Pass,schedule_A,schedule_A,27,17,6,end,Zone1,timelimit_screen,151,NaN,NaN,,NaN,0,1,0,NaN,NaN,1,NaN,NaN,trial_right,redBox.png,yellowBox.png,redBox.png,al1_con.png,47,26,NaN,NaN,0.85,0.85,1,1,1,0,Stable,Stable,2.487,1.697,1.13,1.286,expert
134,1671576280532,20/12/2022 22:44:40,1671576280509,0,20/12/2022 22:44:40,109680,37,task-v1fs,repeat-u7ds#1->-repeat-l3h2#1->-repeat-pi7a#1->-repeat-apgu#1,26065502,BLIND,7681389,NaN,complete,NaN,NaN,computer,Desktop or Laptop,Mac OS 10.15.7,Safari 14.1.2,1440x900,1440x820,End of Day 1,SLS,90,B,NaN,NaN,NaN,Pass,End of Day 1,Pass,NaN,Pass,NaN,Pass,schedule_A,schedule_A,28,10,1,Screen 1,Zone1,continue_button,497,NaN,NaN,,NaN,0,1,0,NaN,NaN,NaN,NaN,NaN,trial_left,redBox.png,redBox.png,yellowBox.png,al1_con.png,48,27,NaN,NaN,0.85,0.85,1,1,1,1,Stable,Stable,3.824,1.634,0.992,2.244,expert
135,1671576281510,20/12/2022 22:44:41,1671576281494,0,20/12/2022 22:44:41,109680,37,task-v1fs,repeat-u7ds#1->-repeat-l3h2#1->-repeat-pi7a#1->-repeat-apgu#1,26065502,BLIND,7681389,NaN,complete,NaN,NaN,computer,Desktop or Laptop,Mac OS 10.15.7,Safari 14.1.2,1440x900,1440x820,End of Day 1,SLS,90,B,NaN,NaN,NaN,Pass,End of Day 1,Pass,NaN,Pass,NaN,Pass,schedule_A,schedule_A,28,10,2,individual,Zone4,timelimit_screen,1000,NaN,NaN,,NaN,0,1,0,NaN,NaN,1,NaN,NaN,trial_left,redBox.png,redBox.png,yellowBox.png,al1_con.png,48,27,NaN,NaN,0.85,0.85,1,1,1,1,Stable,Stable,3.824,1.634,0.992,2.244,expert
136,1671576282458,20/12/2022 22:44:42,1671576282431,0,20/12/2022 22:44:42,109680,37,task-v1fs,repeat-u7ds#1->-repeat-l3h2#1->-repeat-pi7a#1->-repeat-apgu#1,26065502,BLIND,7681389,NaN,complete,NaN,NaN,computer,Desktop or Laptop,Mac OS 10.15.7,Safari 14.1.2,1440x900,1440x820,End of Day 1,SLS,90,B,NaN,NaN,NaN,Pass,End of Day 1,Pass,NaN,Pass,NaN,Pass,schedule_A,schedule_A,28,10,3,offer,Zone2,response_button_image,923,NaN,NaN,redBox.png,1,1,0,0,NaN,NaN,NaN,NaN,NaN,trial_left,redBox.png,redBox.png,yellowBox.png,al1_con.png,48,27,NaN,NaN,0.85,0.85,1,1,1,1,Stable,Stable,3.824,1.634,0.992,2.244,expert
137,1671576284444,20/12/2022 22:44:44,1671576284426,0,20/12/2022 22:44:44,109680,37,task-v1fs,repeat-u7ds#1->-repeat-l3h2#1->-repeat-pi7a#1->-repeat-apgu#1,26065502,BLIND,7681389,NaN,complete,NaN,NaN,computer,Desktop or Laptop,Mac OS 10.15.7,Safari 14.1.2,1440x900,1440x820,End of Day 1,SLS,90,B,NaN,NaN,NaN,Pass,End of Day 1,Pass,NaN,Pass,NaN,Pass,schedule_A,schedule_A,28,10,4,feedback_l,Zone7,timelimit_screen,1999,NaN,NaN,,NaN,0,1,0,NaN,NaN,1,NaN,NaN,trial_left,redBox.png,redBox.png,yellowBox.png,al1_con.png,48,27,NaN,NaN,0.85,0.85,1,1,1,1,Stable,Stable,3.824,1.634,0.992,2.244,expert
138,1671576284609,20/12/2022 22:44:44,1671576284577,0,20/12/2022 22:44:44,109680,37,task-v1fs,repeat-u7ds#1->-repeat-l3h2#1->-repeat-pi7a#1->-repeat-apgu#1,26065502,BLIND,7681389,NaN,complete,NaN,NaN,computer,Desktop or Laptop,Mac OS 10.15.7,Safari 14.1.2,1440x900,1440x820,End of Day 1,SLS,90,B,NaN,NaN,NaN,Pass,End of Day 1,Pass,NaN,Pass,NaN,Pass,schedule_A,schedule_A,28,10,6,end,Zone1,timelimit_screen,151,NaN,NaN,,NaN,0,1,0,NaN,NaN,1,NaN,NaN,trial_left,redBox.png,redBox.png,yellowBox.png,al1_con.png,48,27,NaN,NaN,0.85,0.85,1,1,1,1,Stable,Stable,3.824,1.634,0.992,2.244,expert
139,1671576285418,20/12/2022 22:44:45,1671576285388,0,20/12/2022 22:44:45,109680,37,task-v1fs,repeat-u7ds#1->-repeat-l3h2#1->-repeat-pi7a#1->-repeat-apgu#1,26065502,BLIND,7681389,NaN,complete,NaN,NaN,computer,Desktop or Laptop,Mac OS 10.15.7,Safari 14.1.2,1440x900,1440x820,End of Day 1,SLS,90,B,NaN,NaN,NaN,Pass,End of Day 1,Pass,NaN,Pass,NaN,Pass,schedule_A,schedule_A,29,11,1,Screen 1,Zone1,continue_button,788,NaN,NaN,,NaN,0,1,0,NaN,NaN,NaN,NaN,NaN,trial_left,redBox.png,redBox.png,yellowBox.png,al1_con.png,49,28,NaN,NaN,0.85,0.85,1,1,1,1,Stable,Stable,2.84,1.937,1.723,2.815,expert
140,1671576286406,20/12/2022 22:44:46,1671576286381,0,20/12/2022 22:44:46,109680,37,task-v1fs,repeat-u7ds#1->-repeat-l3h2#1->-repeat-pi7a#1->-repeat-apgu#1,26065502,BLIND,7681389,NaN,complete,NaN,NaN,computer,Desktop or Laptop,Mac OS 10.15.7,Safari 14.1.2,1440x900,1440x820,End of Day 1,SLS,90,B,NaN,NaN,NaN,Pass,End of Day 1,Pass,NaN,Pass,NaN,Pass,schedule_A,schedule_A,29,11,2,individual,Zone4,timelimit_screen,1004,NaN,NaN,,NaN,0,1,0,NaN,NaN,1,NaN,NaN,trial_left,redBox.png,redBox.png,yellowBox.png,al1_con.png,49,28,NaN,NaN,0.85,0.85,1,1,1,1,Stable,Stable,2.84,1.937,1.723,2.815,expert
141,1671576287240,20/12/2022 22:44:47,1671576287231,0,20/12/2022 22:44:47,109680,37,task-v1fs,repeat-u7ds#1->-repeat-l3h2#1->-repeat-pi7a#1->-repeat-apgu#1,26065502,BLIND,7681389,NaN,complete,NaN,NaN,computer,Desktop or Laptop,Mac OS 10.15.7,Safari 14.1.2,1440x900,1440x820,End of Day 1,SLS,90,B,NaN,NaN,NaN,Pass,End of Day 1,Pass,NaN,Pass,NaN,Pass,schedule_A,schedule_A,29,11,3,offer,Zone2,response_button_image,838,NaN,NaN,redBox.png,1,1,0,0,NaN,NaN,NaN,NaN,NaN,trial_left,redBox.png,redBox.png,yellowBox.png,al1_con.png,49,28,NaN,NaN,0.85,0.85,1,1,1,1,Stable,Stable,2.84,1.937,1.723,2.815,expert
142,1671576289251,20/12/2022 22:44:49,1671576289227,0,20/12/2022 22:44:49,109680,37,task-v1fs,repeat-u7ds#1->-repeat-l3h2#1->-repeat-pi7a#1->-repeat-apgu#1,26065502,BLIND,7681389,NaN,complete,NaN,NaN,computer,Desktop or Laptop,Mac OS 10.15.7,Safari 14.1.2,1440x900,1440x820,End of Day 1,SLS,90,B,NaN,NaN,NaN,Pass,End of Day 1,Pass,NaN,Pass,NaN,Pass,schedule_A,schedule_A,29,11,4,feedback_l,Zone7,timelimit_screen,1999,NaN,NaN,,NaN,0,1,0,NaN,NaN,1,NaN,NaN,trial_left,redBox.png,redBox.png,yellowBox.png,al1_con.png,49,28,NaN,NaN,0.85,0.85,1,1,1,1,Stable,Stable,2.84,1.937,1.723,2.815,expert
143,1671576289405,20/12/2022 22:44:49,1671576289377,0,20/12/2022 22:44:49,109680,37,task-v1fs,repeat-u7ds#1->-repeat-l3h2#1->-repeat-pi7a#1->-repeat-apgu#1,26065502,BLIND,7681389,NaN,complete,NaN,NaN,computer,Desktop or Laptop,Mac OS 10.15.7,Safari 14.1.2,1440x900,1440x820,End of Day 1,SLS,90,B,NaN,NaN,NaN,Pass,End of Day 1,Pass,NaN,Pass,NaN,Pass,schedule_A,schedule_A,29,11,6,end,Zone1,timelimit_screen,150,NaN,NaN,,NaN,0,1,0,NaN,NaN,1,NaN,NaN,trial_left,redBox.png,redBox.png,yellowBox.png,al1_con.png,49,28,NaN,NaN,0.85,0.85,1,1,1,1,Stable,Stable,2.84,1.937,1.723,2.815,expert
144,1671576290217,20/12/2022 22:44:50,1671576290192,0,20/12/2022 22:44:50,109680,37,task-v1fs,repeat-u7ds#1->-repeat-l3h2#1->-repeat-pi7a#1->-repeat-apgu#1,26065502,BLIND,7681389,NaN,complete,NaN,NaN,computer,Desktop or Laptop,Mac OS 10.15.7,Safari 14.1.2,1440x900,1440x820,End of Day 1,SLS,90,B,NaN,NaN,NaN,Pass,End of Day 1,Pass,NaN,Pass,NaN,Pass,schedule_A,schedule_A,30,18,1,Screen 1,Zone1,continue_button,792,NaN,NaN,,NaN,0,1,0,NaN,NaN,NaN,NaN,NaN,trial_right,redBox.png,yellowBox.png,redBox.png,al1_con.png,50,29,NaN,NaN,0.85,0.85,1,1,1,0,Stable,Stable,2.941,1.71,0.664,1.336,expert
145,1671576291199,20/12/2022 22:44:51,1671576291177,0,20/12/2022 22:44:51,109680,37,task-v1fs,repeat-u7ds#1->-repeat-l3h2#1->-repeat-pi7a#1->-repeat-apgu#1,26065502,BLIND,7681389,NaN,complete,NaN,NaN,computer,Desktop or Laptop,Mac OS 10.15.7,Safari 14.1.2,1440x900,1440x820,End of Day 1,SLS,90,B,NaN,NaN,NaN,Pass,End of Day 1,Pass,NaN,Pass,NaN,Pass,schedule_A,schedule_A,30,18,2,individual,Zone4,timelimit_screen,999,NaN,NaN,,NaN,0,1,0,NaN,NaN,1,NaN,NaN,trial_right,redBox.png,yellowBox.png,redBox.png,al1_con.png,50,29,NaN,NaN,0.85,0.85,1,1,1,0,Stable,Stable,2.941,1.71,0.664,1.336,expert
146,1671576291970,20/12/2022 22:44:51,1671576291954,0,20/12/2022 22:44:51,109680,37,task-v1fs,repeat-u7ds#1->-repeat-l3h2#1->-repeat-pi7a#1->-repeat-apgu#1,26065502,BLIND,7681389,NaN,complete,NaN,NaN,computer,Desktop or Laptop,Mac OS 10.15.7,Safari 14.1.2,1440x900,1440x820,End of Day 1,SLS,90,B,NaN,NaN,NaN,Pass,End of Day 1,Pass,NaN,Pass,NaN,Pass,schedule_A,schedule_A,30,18,3,offer,Zone3,response_button_image,770,NaN,NaN,redBox.png,1,1,0,0,NaN,NaN,NaN,NaN,NaN,trial_right,redBox.png,yellowBox.png,redBox.png,al1_con.png,50,29,NaN,NaN,0.85,0.85,1,1,1,0,Stable,Stable,2.941,1.71,0.664,1.336,expert
147,1671576293957,20/12/2022 22:44:53,1671576293944,0,20/12/2022 22:44:53,109680,37,task-v1fs,repeat-u7ds#1->-repeat-l3h2#1->-repeat-pi7a#1->-repeat-apgu#1,26065502,BLIND,7681389,NaN,complete,NaN,NaN,computer,Desktop or Laptop,Mac OS 10.15.7,Safari 14.1.2,1440x900,1440x820,End of Day 1,SLS,90,B,NaN,NaN,NaN,Pass,End of Day 1,Pass,NaN,Pass,NaN,Pass,schedule_A,schedule_A,30,18,5,feedback_r,Zone7,timelimit_screen,2000,NaN,NaN,,NaN,0,1,0,NaN,NaN,1,NaN,NaN,trial_right,redBox.png,yellowBox.png,redBox.png,al1_con.png,50,29,NaN,NaN,0.85,0.85,1,1,1,0,Stable,Stable,2.941,1.71,0.664,1.336,expert
148,1671576294122,20/12/2022 22:44:54,1671576294094,0,20/12/2022 22:44:54,109680,37,task-v1fs,repeat-u7ds#1->-repeat-l3h2#1->-repeat-pi7a#1->-repeat-apgu#1,26065502,BLIND,7681389,NaN,complete,NaN,NaN,computer,Desktop or Laptop,Mac OS 10.15.7,Safari 14.1.2,1440x900,1440x820,End of Day 1,SLS,90,B,NaN,NaN,NaN,Pass,End of Day 1,Pass,NaN,Pass,NaN,Pass,schedule_A,schedule_A,30,18,6,end,Zone1,timelimit_screen,150,NaN,NaN,,NaN,0,1,0,NaN,NaN,1,NaN,NaN,trial_right,redBox.png,yellowBox.png,redBox.png,al1_con.png,50,29,NaN,NaN,0.85,0.85,1,1,1,0,Stable,Stable,2.941,1.71,0.664,1.336,expert
149,1671576294974,20/12/2022 22:44:54,1671576294964,0,20/12/2022 22:44:54,109680,37,task-v1fs,repeat-u7ds#1->-repeat-l3h2#1->-repeat-pi7a#1->-repeat-apgu#1,26065502,BLIND,7681389,NaN,complete,NaN,NaN,computer,Desktop or Laptop,Mac OS 10.15.7,Safari 14.1.2,1440x900,1440x820,End of Day 1,SLS,90,B,NaN,NaN,NaN,Pass,End of Day 1,Pass,NaN,Pass,NaN,Pass,schedule_A,schedule_A,31,12,1,Screen 1,Zone1,continue_button,848.999999999971,NaN,NaN,,NaN,0,1,0,NaN,NaN,NaN,NaN,NaN,trial_left,redBox.png,redBox.png,yellowBox.png,al1_con.png,61,30,NaN,NaN,0.85,0.85,1,1,1,1,Stable,Stable,2.79,1.735,0.601,2.345,expert
150,1671576295986,20/12/2022 22:44:55,1671576295961,0,20/12/2022 22:44:55,109680,37,task-v1fs,repeat-u7ds#1->-repeat-l3h2#1->-repeat-pi7a#1->-repeat-apgu#1,26065502,BLIND,7681389,NaN,complete,NaN,NaN,computer,Desktop or Laptop,Mac OS 10.15.7,Safari 14.1.2,1440x900,1440x820,End of Day 1,SLS,90,B,NaN,NaN,NaN,Pass,End of Day 1,Pass,NaN,Pass,NaN,Pass,schedule_A,schedule_A,31,12,2,individual,Zone4,timelimit_screen,1000,NaN,NaN,,NaN,0,1,0,NaN,NaN,1,NaN,NaN,trial_left,redBox.png,redBox.png,yellowBox.png,al1_con.png,61,30,NaN,NaN,0.85,0.85,1,1,1,1,Stable,Stable,2.79,1.735,0.601,2.345,expert
151,1671576296942,20/12/2022 22:44:56,1671576296912,0,20/12/2022 22:44:56,109680,37,task-v1fs,repeat-u7ds#1->-repeat-l3h2#1->-repeat-pi7a#1->-repeat-apgu#1,26065502,BLIND,7681389,NaN,complete,NaN,NaN,computer,Desktop or Laptop,Mac OS 10.15.7,Safari 14.1.2,1440x900,1440x820,End of Day 1,SLS,90,B,NaN,NaN,NaN,Pass,End of Day 1,Pass,NaN,Pass,NaN,Pass,schedule_A,schedule_A,31,12,3,offer,Zone2,response_button_image,938,NaN,NaN,redBox.png,1,1,0,0,NaN,NaN,NaN,NaN,NaN,trial_left,redBox.png,redBox.png,yellowBox.png,al1_con.png,61,30,NaN,NaN,0.85,0.85,1,1,1,1,Stable,Stable,2.79,1.735,0.601,2.345,expert
152,1671576298924,20/12/2022 22:44:58,1671576298911,0,20/12/2022 22:44:58,109680,37,task-v1fs,repeat-u7ds#1->-repeat-l3h2#1->-repeat-pi7a#1->-repeat-apgu#1,26065502,BLIND,7681389,NaN,complete,NaN,NaN,computer,Desktop or Laptop,Mac OS 10.15.7,Safari 14.1.2,1440x900,1440x820,End of Day 1,SLS,90,B,NaN,NaN,NaN,Pass,End of Day 1,Pass,NaN,Pass,NaN,Pass,schedule_A,schedule_A,31,12,4,feedback_l,Zone7,timelimit_screen,2000,NaN,NaN,,NaN,0,1,0,NaN,NaN,1,NaN,NaN,trial_left,redBox.png,redBox.png,yellowBox.png,al1_con.png,61,30,NaN,NaN,0.85,0.85,1,1,1,1,Stable,Stable,2.79,1.735,0.601,2.345,expert
153,1671576299142,20/12/2022 22:44:59,1671576299061,0,20/12/2022 22:44:59,109680,37,task-v1fs,repeat-u7ds#1->-repeat-l3h2#1->-repeat-pi7a#1->-repeat-apgu#1,26065502,BLIND,7681389,NaN,complete,NaN,NaN,computer,Desktop or Laptop,Mac OS 10.15.7,Safari 14.1.2,1440x900,1440x820,End of Day 1,SLS,90,B,NaN,NaN,NaN,Pass,End of Day 1,Pass,NaN,Pass,NaN,Pass,schedule_A,schedule_A,31,12,6,end,Zone1,timelimit_screen,150,NaN,NaN,,NaN,0,1,0,NaN,NaN,1,NaN,NaN,trial_left,redBox.png,redBox.png,yellowBox.png,al1_con.png,61,30,NaN,NaN,0.85,0.85,1,1,1,1,Stable,Stable,2.79,1.735,0.601,2.345,expert
154,1671576300083,20/12/2022 22:45:00,1671576300026,0,20/12/2022 22:45:00,109680,37,task-v1fs,repeat-u7ds#1->-repeat-l3h2#1->-repeat-pi7a#1->-repeat-apgu#1,26065502,BLIND,7681389,NaN,complete,NaN,NaN,computer,Desktop or Laptop,Mac OS 10.15.7,Safari 14.1.2,1440x900,1440x820,End of Day 1,SLS,90,B,NaN,NaN,NaN,Pass,End of Day 1,Pass,NaN,Pass,NaN,Pass,schedule_A,schedule_A,32,19,1,Screen 1,Zone1,continue_button,942,NaN,NaN,,NaN,0,1,0,NaN,NaN,NaN,NaN,NaN,trial_right,redBox.png,redBox.png,yellowBox.png,al1_con.png,62,31,NaN,NaN,0.85,0.15,1,0,0,1,Stable,Volatile,2.538,1.672,1.143,1.555,expert
155,1671576301037,20/12/2022 22:45:01,1671576301011,0,20/12/2022 22:45:01,109680,37,task-v1fs,repeat-u7ds#1->-repeat-l3h2#1->-repeat-pi7a#1->-repeat-apgu#1,26065502,BLIND,7681389,NaN,complete,NaN,NaN,computer,Desktop or Laptop,Mac OS 10.15.7,Safari 14.1.2,1440x900,1440x820,End of Day 1,SLS,90,B,NaN,NaN,NaN,Pass,End of Day 1,Pass,NaN,Pass,NaN,Pass,schedule_A,schedule_A,32,19,2,individual,Zone4,timelimit_screen,1000,NaN,NaN,,NaN,0,1,0,NaN,NaN,1,NaN,NaN,trial_right,redBox.png,redBox.png,yellowBox.png,al1_con.png,62,31,NaN,NaN,0.85,0.15,1,0,0,1,Stable,Volatile,2.538,1.672,1.143,1.555,expert
156,1671576302276,20/12/2022 22:45:02,1671576302252,0,20/12/2022 22:45:02,109680,37,task-v1fs,repeat-u7ds#1->-repeat-l3h2#1->-repeat-pi7a#1->-repeat-apgu#1,26065502,BLIND,7681389,NaN,complete,NaN,NaN,computer,Desktop or Laptop,Mac OS 10.15.7,Safari 14.1.2,1440x900,1440x820,End of Day 1,SLS,90,B,NaN,NaN,NaN,Pass,End of Day 1,Pass,NaN,Pass,NaN,Pass,schedule_A,schedule_A,32,19,3,offer,Zone2,response_button_image,1227,NaN,NaN,redBox.png,1,1,0,0,NaN,NaN,NaN,NaN,NaN,trial_right,redBox.png,redBox.png,yellowBox.png,al1_con.png,62,31,NaN,NaN,0.85,0.15,1,0,0,1,Stable,Volatile,2.538,1.672,1.143,1.555,expert
157,1671576304264,20/12/2022 22:45:04,1671576304243,0,20/12/2022 22:45:04,109680,37,task-v1fs,repeat-u7ds#1->-repeat-l3h2#1->-repeat-pi7a#1->-repeat-apgu#1,26065502,BLIND,7681389,NaN,complete,NaN,NaN,computer,Desktop or Laptop,Mac OS 10.15.7,Safari 14.1.2,1440x900,1440x820,End of Day 1,SLS,90,B,NaN,NaN,NaN,Pass,End of Day 1,Pass,NaN,Pass,NaN,Pass,schedule_A,schedule_A,32,19,4,feedback_l,Zone7,timelimit_screen,2000,NaN,NaN,,NaN,0,1,0,NaN,NaN,1,NaN,NaN,trial_right,redBox.png,redBox.png,yellowBox.png,al1_con.png,62,31,NaN,NaN,0.85,0.15,1,0,0,1,Stable,Volatile,2.538,1.672,1.143,1.555,expert
158,1671576304422,20/12/2022 22:45:04,1671576304394,0,20/12/2022 22:45:04,109680,37,task-v1fs,repeat-u7ds#1->-repeat-l3h2#1->-repeat-pi7a#1->-repeat-apgu#1,26065502,BLIND,7681389,NaN,complete,NaN,NaN,computer,Desktop or Laptop,Mac OS 10.15.7,Safari 14.1.2,1440x900,1440x820,End of Day 1,SLS,90,B,NaN,NaN,NaN,Pass,End of Day 1,Pass,NaN,Pass,NaN,Pass,schedule_A,schedule_A,32,19,6,end,Zone1,timelimit_screen,151,NaN,NaN,,NaN,0,1,0,NaN,NaN,1,NaN,NaN,trial_right,redBox.png,redBox.png,yellowBox.png,al1_con.png,62,31,NaN,NaN,0.85,0.15,1,0,0,1,Stable,Volatile,2.538,1.672,1.143,1.555,expert
159,1671576305325,20/12/2022 22:45:05,1671576305304,0,20/12/2022 22:45:05,109680,37,task-v1fs,repeat-u7ds#1->-repeat-l3h2#1->-repeat-pi7a#1->-repeat-apgu#1,26065502,BLIND,7681389,NaN,complete,NaN,NaN,computer,Desktop or Laptop,Mac OS 10.15.7,Safari 14.1.2,1440x900,1440x820,End of Day 1,SLS,90,B,NaN,NaN,NaN,Pass,End of Day 1,Pass,NaN,Pass,NaN,Pass,schedule_A,schedule_A,33,13,1,Screen 1,Zone1,continue_button,888,NaN,NaN,,NaN,0,1,0,NaN,NaN,NaN,NaN,NaN,trial_left,redBox.png,yellowBox.png,redBox.png,al1_con.png,63,32,NaN,NaN,0.85,0.15,1,0,0,0,Stable,Volatile,2.739,1.13,0.815,1.387,expert
160,1671576306318,20/12/2022 22:45:06,1671576306294,0,20/12/2022 22:45:06,109680,37,task-v1fs,repeat-u7ds#1->-repeat-l3h2#1->-repeat-pi7a#1->-repeat-apgu#1,26065502,BLIND,7681389,NaN,complete,NaN,NaN,computer,Desktop or Laptop,Mac OS 10.15.7,Safari 14.1.2,1440x900,1440x820,End of Day 1,SLS,90,B,NaN,NaN,NaN,Pass,End of Day 1,Pass,NaN,Pass,NaN,Pass,schedule_A,schedule_A,33,13,2,individual,Zone4,timelimit_screen,1000,NaN,NaN,,NaN,0,1,0,NaN,NaN,1,NaN,NaN,trial_left,redBox.png,yellowBox.png,redBox.png,al1_con.png,63,32,NaN,NaN,0.85,0.15,1,0,0,0,Stable,Volatile,2.739,1.13,0.815,1.387,expert
161,1671576307418,20/12/2022 22:45:07,1671576307406,0,20/12/2022 22:45:07,109680,37,task-v1fs,repeat-u7ds#1->-repeat-l3h2#1->-repeat-pi7a#1->-repeat-apgu#1,26065502,BLIND,7681389,NaN,complete,NaN,NaN,computer,Desktop or Laptop,Mac OS 10.15.7,Safari 14.1.2,1440x900,1440x820,End of Day 1,SLS,90,B,NaN,NaN,NaN,Pass,End of Day 1,Pass,NaN,Pass,NaN,Pass,schedule_A,schedule_A,33,13,3,offer,bluebox,response_button_image,1100,NaN,NaN,redBox.png,1,1,0,0,NaN,NaN,NaN,NaN,NaN,trial_left,redBox.png,yellowBox.png,redBox.png,al1_con.png,63,32,NaN,NaN,0.85,0.15,1,0,0,0,Stable,Volatile,2.739,1.13,0.815,1.387,expert
162,1671576309419,20/12/2022 22:45:09,1671576309393,0,20/12/2022 22:45:09,109680,37,task-v1fs,repeat-u7ds#1->-repeat-l3h2#1->-repeat-pi7a#1->-repeat-apgu#1,26065502,BLIND,7681389,NaN,complete,NaN,NaN,computer,Desktop or Laptop,Mac OS 10.15.7,Safari 14.1.2,1440x900,1440x820,End of Day 1,SLS,90,B,NaN,NaN,NaN,Pass,End of Day 1,Pass,NaN,Pass,NaN,Pass,schedule_A,schedule_A,33,13,5,feedback_r,Zone7,timelimit_screen,2000,NaN,NaN,,NaN,0,1,0,NaN,NaN,1,NaN,NaN,trial_left,redBox.png,yellowBox.png,redBox.png,al1_con.png,63,32,NaN,NaN,0.85,0.15,1,0,0,0,Stable,Volatile,2.739,1.13,0.815,1.387,expert
163,1671576309556,20/12/2022 22:45:09,1671576309543,0,20/12/2022 22:45:09,109680,37,task-v1fs,repeat-u7ds#1->-repeat-l3h2#1->-repeat-pi7a#1->-repeat-apgu#1,26065502,BLIND,7681389,NaN,complete,NaN,NaN,computer,Desktop or Laptop,Mac OS 10.15.7,Safari 14.1.2,1440x900,1440x820,End of Day 1,SLS,90,B,NaN,NaN,NaN,Pass,End of Day 1,Pass,NaN,Pass,NaN,Pass,schedule_A,schedule_A,33,13,6,end,Zone1,timelimit_screen,151,NaN,NaN,,NaN,0,1,0,NaN,NaN,1,NaN,NaN,trial_left,redBox.png,yellowBox.png,redBox.png,al1_con.png,63,32,NaN,NaN,0.85,0.15,1,0,0,0,Stable,Volatile,2.739,1.13,0.815,1.387,expert
164,1671576310254,20/12/2022 22:45:10,1671576310239,0,20/12/2022 22:45:10,109680,37,task-v1fs,repeat-u7ds#1->-repeat-l3h2#1->-repeat-pi7a#1->-repeat-apgu#1,26065502,BLIND,7681389,NaN,complete,NaN,NaN,computer,Desktop or Laptop,Mac OS 10.15.7,Safari 14.1.2,1440x900,1440x820,End of Day 1,SLS,90,B,NaN,NaN,NaN,Pass,End of Day 1,Pass,NaN,Pass,NaN,Pass,schedule_A,schedule_A,34,20,1,Screen 1,Zone1,continue_button,680,NaN,NaN,,NaN,0,1,0,NaN,NaN,NaN,NaN,NaN,trial_right,redBox.png,redBox.png,yellowBox.png,al1_con.png,64,33,NaN,NaN,0.85,0.15,1,0,0,1,Stable,Volatile,3.672,0.828,0.513,2.059,expert
165,1671576311249,20/12/2022 22:45:11,1671576311228,0,20/12/2022 22:45:11,109680,37,task-v1fs,repeat-u7ds#1->-repeat-l3h2#1->-repeat-pi7a#1->-repeat-apgu#1,26065502,BLIND,7681389,NaN,complete,NaN,NaN,computer,Desktop or Laptop,Mac OS 10.15.7,Safari 14.1.2,1440x900,1440x820,End of Day 1,SLS,90,B,NaN,NaN,NaN,Pass,End of Day 1,Pass,NaN,Pass,NaN,Pass,schedule_A,schedule_A,34,20,2,individual,Zone4,timelimit_screen,1000,NaN,NaN,,NaN,0,1,0,NaN,NaN,1,NaN,NaN,trial_right,redBox.png,redBox.png,yellowBox.png,al1_con.png,64,33,NaN,NaN,0.85,0.15,1,0,0,1,Stable,Volatile,3.672,0.828,0.513,2.059,expert
166,1671576315296,20/12/2022 22:45:15,1671576315279,0,20/12/2022 22:45:15,109680,37,task-v1fs,repeat-u7ds#1->-repeat-l3h2#1->-repeat-pi7a#1->-repeat-apgu#1,26065502,BLIND,7681389,NaN,complete,NaN,NaN,computer,Desktop or Laptop,Mac OS 10.15.7,Safari 14.1.2,1440x900,1440x820,End of Day 1,SLS,90,B,NaN,NaN,NaN,Pass,End of Day 1,Pass,NaN,Pass,NaN,Pass,schedule_A,schedule_A,34,20,3,offer,Zone2,response_button_image,4036,NaN,NaN,redBox.png,1,1,0,0,NaN,NaN,NaN,NaN,NaN,trial_right,redBox.png,redBox.png,yellowBox.png,al1_con.png,64,33,NaN,NaN,0.85,0.15,1,0,0,1,Stable,Volatile,3.672,0.828,0.513,2.059,expert
167,1671576317311,20/12/2022 22:45:17,1671576317277,0,20/12/2022 22:45:17,109680,37,task-v1fs,repeat-u7ds#1->-repeat-l3h2#1->-repeat-pi7a#1->-repeat-apgu#1,26065502,BLIND,7681389,NaN,complete,NaN,NaN,computer,Desktop or Laptop,Mac OS 10.15.7,Safari 14.1.2,1440x900,1440x820,End of Day 1,SLS,90,B,NaN,NaN,NaN,Pass,End of Day 1,Pass,NaN,Pass,NaN,Pass,schedule_A,schedule_A,34,20,4,feedback_l,Zone7,timelimit_screen,2001,NaN,NaN,,NaN,0,1,0,NaN,NaN,1,NaN,NaN,trial_right,redBox.png,redBox.png,yellowBox.png,al1_con.png,64,33,NaN,NaN,0.85,0.15,1,0,0,1,Stable,Volatile,3.672,0.828,0.513,2.059,expert
