EventIndex,UTCTimestamp,UTCDate,LocalTimestamp,LocalTimezone,LocalDate,ExperimentID,ExperimentVersion,TreeNodeKey,RepeatKey,ScheduleID,ParticipantPublicID,ParticipantPrivateID,ParticipantStartingGroup,ParticipantStatus,ParticipantCompletionCode,ParticipantExternalSessionID,ParticipantDeviceType,ParticipantDevice,ParticipantOS,ParticipantBrowser,ParticipantMonitorSize,ParticipantViewportSize,Checkpoint,TaskName,TaskVersion,randomiser_6z9f,branch_kxy7,checkpoint_tqwf,branch_rtog,branch_7dgx,checkpoint_mqen,branch_yx2c,branch_3n8o,branch_f1s6,branch_x6l7,branch_21hs,checkpoint_iz27,checkpoint_sry6,Spreadsheet,SpreadsheetName,SpreadsheetRow,TrialNumber,ScreenNumber,ScreenName,ZoneName,ZoneType,ReactionTime,ReactionOnset,ResponseType,Response,Attempt,Correct,Incorrect,Dishonest,XCoordinate,YCoordinate,TimedOut,randomise_blocks,randomise_trials,display,ANSWER,left_button,right_button,advice,orderno,trialno,ShowProgressBar,image,prob_blue_corr,prob_group_corr,corr_ans,group_corr,group_choice,blue_pos,indiv_vol,soc_vol,ITI_1,ITI_2,ITI_3,ITI_4,condition
1,1673456692935,11/01/2023 17:04:52,1673456692917,0,11/01/2023 17:04:52,111483,5,task-qrxs,repeat-7g8d#1->-repeat-38fk#1->-repeat-qjz7#1->-repeat-5t6i#1,26327174,BLIND,7766400,NaN,complete,NaN,63bdb71b374a15fbe31fe02d,computer,Desktop or Laptop,Windows 10,Chrome 108.0.0.0,1500x1000,1500x1000,Start of Day 2,SLS,90,A,Pass,End of Day 1,Pass,NaN,NaN,NaN,Pass,NaN,Pass,NaN,Start of Day 2,NaN,schedule_B,,NaN,NaN,NaN,,,,NaN,NaN,NaN,,NaN,0,1,0,NaN,NaN,NaN,NaN,NaN,,,,,,NaN,NaN,NaN,NaN,NaN,NaN,NaN,NaN,NaN,NaN,,,NaN,NaN,NaN,NaN,
2,1673456695097,11/01/2023 17:04:55,1673456695111,0,11/01/2023 17:04:55,111483,5,task-qrxs,repeat-7g8d#1->-repeat-38fk#1->-repeat-qjz7#1->-repeat-5t6i#1,26327174,BLIND,7766400,NaN,complete,NaN,63bdb71b374a15fbe31fe02d,computer,Desktop or Laptop,Windows 10,Chrome 108.0.0.0,1500x1000,1500x1000,Start of Day 2,SLS,90,A,Pass,End of Day 1,Pass,NaN,NaN,NaN,Pass,NaN,Pass,NaN,Start of Day 2,NaN,schedule_B,schedule_B,1,1,1,Screen 1,Zone1,continue_button,1788.89999997616,NaN,NaN,,NaN,0,1,0,NaN,NaN,NaN,NaN,NaN,getReadyb,,,,,1,NaN,NaN,NaN,NaN,NaN,NaN,NaN,NaN,NaN,,,NaN,NaN,NaN,NaN,
3,1673456696595,11/01/2023 17:04:56,1673456696603,0,11/01/2023 17:04:56,111483,5,task-qrxs,repeat-7g8d#1->-repeat-38fk#1->-repeat-qjz7#1->-repeat-5t6i#1,26327174,BLIND,7766400,NaN,complete,NaN,63bdb71b374a15fbe31fe02d,computer,Desktop or Laptop,Windows 10,Chrome 108.0.0.0,1500x1000,1500x1000,Start of Day 2,SLS,90,A,Pass,End of Day 1,Pass,NaN,NaN,NaN,Pass,NaN,Pass,NaN,Start of Day 2,NaN,schedule_B,schedule_B,1,1,2,Screen 2,Zone1,continue_button,1487.69999992847,NaN,NaN,,NaN,0,1,0,NaN,NaN,NaN,NaN,NaN,getReadyb,,,,,1,NaN,NaN,NaN,NaN,NaN,NaN,NaN,NaN,NaN,,,NaN,NaN,NaN,NaN,
4,1673456700366,11/01/2023 17:05:00,1673456700386,0,11/01/2023 17:05:00,111483,5,task-qrxs,repeat-7g8d#1->-repeat-38fk#1->-repeat-qjz7#1->-repeat-5t6i#1,26327174,BLIND,7766400,NaN,complete,NaN,63bdb71b374a15fbe31fe02d,computer,Desktop or Laptop,Windows 10,Chrome 108.0.0.0,1500x1000,1500x1000,Start of Day 2,SLS,90,A,Pass,End of Day 1,Pass,NaN,NaN,NaN,Pass,NaN,Pass,NaN,Start of Day 2,NaN,schedule_B,schedule_B,2,1,1,Screen 1,Zone1,continue_button,3767.40000009537,NaN,NaN,,NaN,0,1,0,NaN,NaN,NaN,NaN,NaN,trial_right,greenBox.png,greenBox.png,blueBox.png,al2_uncon.png,2,1,NaN,NaN,0.85,0.15,0,0,1,0,Stable,Stable,3.471,0.525,1.66,2.529,inexpert
5,1673456701363,11/01/2023 17:05:01,1673456701383,0,11/01/2023 17:05:01,111483,5,task-qrxs,repeat-7g8d#1->-repeat-38fk#1->-repeat-qjz7#1->-repeat-5t6i#1,26327174,BLIND,7766400,NaN,complete,NaN,63bdb71b374a15fbe31fe02d,computer,Desktop or Laptop,Windows 10,Chrome 108.0.0.0,1500x1000,1500x1000,Start of Day 2,SLS,90,A,Pass,End of Day 1,Pass,NaN,NaN,NaN,Pass,NaN,Pass,NaN,Start of Day 2,NaN,schedule_B,schedule_B,2,1,2,individual,Zone4,timelimit_screen,999.773999999999,NaN,NaN,,NaN,0,1,0,NaN,NaN,1,NaN,NaN,trial_right,greenBox.png,greenBox.png,blueBox.png,al2_uncon.png,2,1,NaN,NaN,0.85,0.15,0,0,1,0,Stable,Stable,3.471,0.525,1.66,2.529,inexpert
6,1673456702280,11/01/2023 17:05:02,1673456702299,0,11/01/2023 17:05:02,111483,5,task-qrxs,repeat-7g8d#1->-repeat-38fk#1->-repeat-qjz7#1->-repeat-5t6i#1,26327174,BLIND,7766400,NaN,complete,NaN,63bdb71b374a15fbe31fe02d,computer,Desktop or Laptop,Windows 10,Chrome 108.0.0.0,1500x1000,1500x1000,Start of Day 2,SLS,90,A,Pass,End of Day 1,Pass,NaN,NaN,NaN,Pass,NaN,Pass,NaN,Start of Day 2,NaN,schedule_B,schedule_B,2,1,3,offer,Zone3,response_button_image,909.299999952316,NaN,NaN,blueBox.png,1,0,1,0,NaN,NaN,NaN,NaN,NaN,trial_right,greenBox.png,greenBox.png,blueBox.png,al2_uncon.png,2,1,NaN,NaN,0.85,0.15,0,0,1,0,Stable,Stable,3.471,0.525,1.66,2.529,inexpert
7,1673456704264,11/01/2023 17:05:04,1673456704294,0,11/01/2023 17:05:04,111483,5,task-qrxs,repeat-7g8d#1->-repeat-38fk#1->-repeat-qjz7#1->-repeat-5t6i#1,26327174,BLIND,7766400,NaN,complete,NaN,63bdb71b374a15fbe31fe02d,computer,Desktop or Laptop,Windows 10,Chrome 108.0.0.0,1500x1000,1500x1000,Start of Day 2,SLS,90,A,Pass,End of Day 1,Pass,NaN,NaN,NaN,Pass,NaN,Pass,NaN,Start of Day 2,NaN,schedule_B,schedule_B,2,1,5,feedback_r,Zone7,timelimit_screen,2000.006,NaN,NaN,,NaN,0,1,0,NaN,NaN,1,NaN,NaN,trial_right,greenBox.png,greenBox.png,blueBox.png,al2_uncon.png,2,1,NaN,NaN,0.85,0.15,0,0,1,0,Stable,Stable,3.471,0.525,1.66,2.529,inexpert
8,1673456704422,11/01/2023 17:05:04,1673456704444,0,11/01/2023 17:05:04,111483,5,task-qrxs,repeat-7g8d#1->-repeat-38fk#1->-repeat-qjz7#1->-repeat-5t6i#1,26327174,BLIND,7766400,NaN,complete,NaN,63bdb71b374a15fbe31fe02d,computer,Desktop or Laptop,Windows 10,Chrome 108.0.0.0,1500x1000,1500x1000,Start of Day 2,SLS,90,A,Pass,End of Day 1,Pass,NaN,NaN,NaN,Pass,NaN,Pass,NaN,Start of Day 2,NaN,schedule_B,schedule_B,2,1,6,end,Zone1,timelimit_screen,150.016,NaN,NaN,,NaN,0,1,0,NaN,NaN,1,NaN,NaN,trial_right,greenBox.png,greenBox.png,blueBox.png,al2_uncon.png,2,1,NaN,NaN,0.85,0.15,0,0,1,0,Stable,Stable,3.471,0.525,1.66,2.529,inexpert
9,1673456705258,11/01/2023 17:05:05,1673456705280,0,11/01/2023 17:05:05,111483,5,task-qrxs,repeat-7g8d#1->-repeat-38fk#1->-repeat-qjz7#1->-repeat-5t6i#1,26327174,BLIND,7766400,NaN,complete,NaN,63bdb71b374a15fbe31fe02d,computer,Desktop or Laptop,Windows 10,Chrome 108.0.0.0,1500x1000,1500x1000,Start of Day 2,SLS,90,A,Pass,End of Day 1,Pass,NaN,NaN,NaN,Pass,NaN,Pass,NaN,Start of Day 2,NaN,schedule_B,schedule_B,3,1,1,Screen 1,Zone1,continue_button,824.399999976158,NaN,NaN,,NaN,0,1,0,NaN,NaN,NaN,NaN,NaN,trial_left,blueBox.png,greenBox.png,blueBox.png,al2_uncon.png,3,2,NaN,NaN,0.85,0.15,1,0,0,0,Stable,Stable,1.782,1.168,1.168,2.462,inexpert
10,1673456706260,11/01/2023 17:05:06,1673456706277,0,11/01/2023 17:05:06,111483,5,task-qrxs,repeat-7g8d#1->-repeat-38fk#1->-repeat-qjz7#1->-repeat-5t6i#1,26327174,BLIND,7766400,NaN,complete,NaN,63bdb71b374a15fbe31fe02d,computer,Desktop or Laptop,Windows 10,Chrome 108.0.0.0,1500x1000,1500x1000,Start of Day 2,SLS,90,A,Pass,End of Day 1,Pass,NaN,NaN,NaN,Pass,NaN,Pass,NaN,Start of Day 2,NaN,schedule_B,schedule_B,3,1,2,individual,Zone4,timelimit_screen,1000.058,NaN,NaN,,NaN,0,1,0,NaN,NaN,1,NaN,NaN,trial_left,blueBox.png,greenBox.png,blueBox.png,al2_uncon.png,3,2,NaN,NaN,0.85,0.15,1,0,0,0,Stable,Stable,1.782,1.168,1.168,2.462,inexpert
11,1673456707177,11/01/2023 17:05:07,1673456707185,0,11/01/2023 17:05:07,111483,5,task-qrxs,repeat-7g8d#1->-repeat-38fk#1->-repeat-qjz7#1->-repeat-5t6i#1,26327174,BLIND,7766400,NaN,complete,NaN,63bdb71b374a15fbe31fe02d,computer,Desktop or Laptop,Windows 10,Chrome 108.0.0.0,1500x1000,1500x1000,Start of Day 2,SLS,90,A,Pass,End of Day 1,Pass,NaN,NaN,NaN,Pass,NaN,Pass,NaN,Start of Day 2,NaN,schedule_B,schedule_B,3,1,3,offer,Zone2,response_button_image,902,NaN,NaN,greenBox.png,1,0,1,0,NaN,NaN,NaN,NaN,NaN,trial_left,blueBox.png,greenBox.png,blueBox.png,al2_uncon.png,3,2,NaN,NaN,0.85,0.15,1,0,0,0,Stable,Stable,1.782,1.168,1.168,2.462,inexpert
12,1673456709156,11/01/2023 17:05:09,1673456709177,0,11/01/2023 17:05:09,111483,5,task-qrxs,repeat-7g8d#1->-repeat-38fk#1->-repeat-qjz7#1->-repeat-5t6i#1,26327174,BLIND,7766400,NaN,complete,NaN,63bdb71b374a15fbe31fe02d,computer,Desktop or Laptop,Windows 10,Chrome 108.0.0.0,1500x1000,1500x1000,Start of Day 2,SLS,90,A,Pass,End of Day 1,Pass,NaN,NaN,NaN,Pass,NaN,Pass,NaN,Start of Day 2,NaN,schedule_B,schedule_B,3,1,4,feedback_l,Zone7,timelimit_screen,2000.308,NaN,NaN,,NaN,0,1,0,NaN,NaN,1,NaN,NaN,trial_left,blueBox.png,greenBox.png,blueBox.png,al2_uncon.png,3,2,NaN,NaN,0.85,0.15,1,0,0,0,Stable,Stable,1.782,1.168,1.168,2.462,inexpert
13,1673456709296,11/01/2023 17:05:09,1673456709327,0,11/01/2023 17:05:09,111483,5,task-qrxs,repeat-7g8d#1->-repeat-38fk#1->-repeat-qjz7#1->-repeat-5t6i#1,26327174,BLIND,7766400,NaN,complete,NaN,63bdb71b374a15fbe31fe02d,computer,Desktop or Laptop,Windows 10,Chrome 108.0.0.0,1500x1000,1500x1000,Start of Day 2,SLS,90,A,Pass,End of Day 1,Pass,NaN,NaN,NaN,Pass,NaN,Pass,NaN,Start of Day 2,NaN,schedule_B,schedule_B,3,1,6,end,Zone1,timelimit_screen,149.75,NaN,NaN,,NaN,0,1,0,NaN,NaN,1,NaN,NaN,trial_left,blueBox.png,greenBox.png,blueBox.png,al2_uncon.png,3,2,NaN,NaN,0.85,0.15,1,0,0,0,Stable,Stable,1.782,1.168,1.168,2.462,inexpert
14,1673456709900,11/01/2023 17:05:09,1673456709919,0,11/01/2023 17:05:09,111483,5,task-qrxs,repeat-7g8d#1->-repeat-38fk#1->-repeat-qjz7#1->-repeat-5t6i#1,26327174,BLIND,7766400,NaN,complete,NaN,63bdb71b374a15fbe31fe02d,computer,Desktop or Laptop,Windows 10,Chrome 108.0.0.0,1500x1000,1500x1000,Start of Day 2,SLS,90,A,Pass,End of Day 1,Pass,NaN,NaN,NaN,Pass,NaN,Pass,NaN,Start of Day 2,NaN,schedule_B,schedule_B,4,2,1,Screen 1,Zone1,continue_button,578.100000023842,NaN,NaN,,NaN,0,1,0,NaN,NaN,NaN,NaN,NaN,trial_left,blueBox.png,greenBox.png,blueBox.png,al2_uncon.png,4,3,NaN,NaN,0.85,0.15,1,0,0,0,Stable,Stable,1.983,1.181,0.538,1.588,inexpert
15,1673456710881,11/01/2023 17:05:10,1673456710910,0,11/01/2023 17:05:10,111483,5,task-qrxs,repeat-7g8d#1->-repeat-38fk#1->-repeat-qjz7#1->-repeat-5t6i#1,26327174,BLIND,7766400,NaN,complete,NaN,63bdb71b374a15fbe31fe02d,computer,Desktop or Laptop,Windows 10,Chrome 108.0.0.0,1500x1000,1500x1000,Start of Day 2,SLS,90,A,Pass,End of Day 1,Pass,NaN,NaN,NaN,Pass,NaN,Pass,NaN,Start of Day 2,NaN,schedule_B,schedule_B,4,2,2,individual,Zone4,timelimit_screen,999.512999999999,NaN,NaN,,NaN,0,1,0,NaN,NaN,1,NaN,NaN,trial_left,blueBox.png,greenBox.png,blueBox.png,al2_uncon.png,4,3,NaN,NaN,0.85,0.15,1,0,0,0,Stable,Stable,1.983,1.181,0.538,1.588,inexpert
16,1673456711841,11/01/2023 17:05:11,1673456711860,0,11/01/2023 17:05:11,111483,5,task-qrxs,repeat-7g8d#1->-repeat-38fk#1->-repeat-qjz7#1->-repeat-5t6i#1,26327174,BLIND,7766400,NaN,complete,NaN,63bdb71b374a15fbe31fe02d,computer,Desktop or Laptop,Windows 10,Chrome 108.0.0.0,1500x1000,1500x1000,Start of Day 2,SLS,90,A,Pass,End of Day 1,Pass,NaN,NaN,NaN,Pass,NaN,Pass,NaN,Start of Day 2,NaN,schedule_B,schedule_B,4,2,3,offer,Zone2,response_button_image,943.899999976158,NaN,NaN,greenBox.png,1,0,1,0,NaN,NaN,NaN,NaN,NaN,trial_left,blueBox.png,greenBox.png,blueBox.png,al2_uncon.png,4,3,NaN,NaN,0.85,0.15,1,0,0,0,Stable,Stable,1.983,1.181,0.538,1.588,inexpert
17,1673456713825,11/01/2023 17:05:13,1673456713844,0,11/01/2023 17:05:13,111483,5,task-qrxs,repeat-7g8d#1->-repeat-38fk#1->-repeat-qjz7#1->-repeat-5t6i#1,26327174,BLIND,7766400,NaN,complete,NaN,63bdb71b374a15fbe31fe02d,computer,Desktop or Laptop,Windows 10,Chrome 108.0.0.0,1500x1000,1500x1000,Start of Day 2,SLS,90,A,Pass,End of Day 1,Pass,NaN,NaN,NaN,Pass,NaN,Pass,NaN,Start of Day 2,NaN,schedule_B,schedule_B,4,2,4,feedback_l,Zone7,timelimit_screen,2000.021,NaN,NaN,,NaN,0,1,0,NaN,NaN,1,NaN,NaN,trial_left,blueBox.png,greenBox.png,blueBox.png,al2_uncon.png,4,3,NaN,NaN,0.85,0.15,1,0,0,0,Stable,Stable,1.983,1.181,0.538,1.588,inexpert
18,1673456713981,11/01/2023 17:05:13,1673456713994,0,11/01/2023 17:05:13,111483,5,task-qrxs,repeat-7g8d#1->-repeat-38fk#1->-repeat-qjz7#1->-repeat-5t6i#1,26327174,BLIND,7766400,NaN,complete,NaN,63bdb71b374a15fbe31fe02d,computer,Desktop or Laptop,Windows 10,Chrome 108.0.0.0,1500x1000,1500x1000,Start of Day 2,SLS,90,A,Pass,End of Day 1,Pass,NaN,NaN,NaN,Pass,NaN,Pass,NaN,Start of Day 2,NaN,schedule_B,schedule_B,4,2,6,end,Zone1,timelimit_screen,150.143,NaN,NaN,,NaN,0,1,0,NaN,NaN,1,NaN,NaN,trial_left,blueBox.png,greenBox.png,blueBox.png,al2_uncon.png,4,3,NaN,NaN,0.85,0.15,1,0,0,0,Stable,Stable,1.983,1.181,0.538,1.588,inexpert
19,1673456714482,11/01/2023 17:05:14,1673456714500,0,11/01/2023 17:05:14,111483,5,task-qrxs,repeat-7g8d#1->-repeat-38fk#1->-repeat-qjz7#1->-repeat-5t6i#1,26327174,BLIND,7766400,NaN,complete,NaN,63bdb71b374a15fbe31fe02d,computer,Desktop or Laptop,Windows 10,Chrome 108.0.0.0,1500x1000,1500x1000,Start of Day 2,SLS,90,A,Pass,End of Day 1,Pass,NaN,NaN,NaN,Pass,NaN,Pass,NaN,Start of Day 2,NaN,schedule_B,schedule_B,5,2,1,Screen 1,Zone1,continue_button,494.699999928474,NaN,NaN,,NaN,0,1,0,NaN,NaN,NaN,NaN,NaN,trial_right,greenBox.png,greenBox.png,blueBox.png,al2_uncon.png,5,4,NaN,NaN,0.85,0.15,0,0,1,0,Stable,Stable,1.529,0.891,1.004,1,inexpert
20,1673456715475,11/01/2023 17:05:15,1673456715494,0,11/01/2023 17:05:15,111483,5,task-qrxs,repeat-7g8d#1->-repeat-38fk#1->-repeat-qjz7#1->-repeat-5t6i#1,26327174,BLIND,7766400,NaN,complete,NaN,63bdb71b374a15fbe31fe02d,computer,Desktop or Laptop,Windows 10,Chrome 108.0.0.0,1500x1000,1500x1000,Start of Day 2,SLS,90,A,Pass,End of Day 1,Pass,NaN,NaN,NaN,Pass,NaN,Pass,NaN,Start of Day 2,NaN,schedule_B,schedule_B,5,2,2,individual,Zone4,timelimit_screen,1000.002,NaN,NaN,,NaN,0,1,0,NaN,NaN,1,NaN,NaN,trial_right,greenBox.png,greenBox.png,blueBox.png,al2_uncon.png,5,4,NaN,NaN,0.85,0.15,0,0,1,0,Stable,Stable,1.529,0.891,1.004,1,inexpert
21,1673456716409,11/01/2023 17:05:16,1673456716442,0,11/01/2023 17:05:16,111483,5,task-qrxs,repeat-7g8d#1->-repeat-38fk#1->-repeat-qjz7#1->-repeat-5t6i#1,26327174,BLIND,7766400,NaN,complete,NaN,63bdb71b374a15fbe31fe02d,computer,Desktop or Laptop,Windows 10,Chrome 108.0.0.0,1500x1000,1500x1000,Start of Day 2,SLS,90,A,Pass,End of Day 1,Pass,NaN,NaN,NaN,Pass,NaN,Pass,NaN,Start of Day 2,NaN,schedule_B,schedule_B,5,2,3,offer,Zone3,response_button_image,942.700000047684,NaN,NaN,blueBox.png,1,0,1,0,NaN,NaN,NaN,NaN,NaN,trial_right,greenBox.png,greenBox.png,blueBox.png,al2_uncon.png,5,4,NaN,NaN,0.85,0.15,0,0,1,0,Stable,Stable,1.529,0.891,1.004,1,inexpert
22,1673456718409,11/01/2023 17:05:18,1673456718427,0,11/01/2023 17:05:18,111483,5,task-qrxs,repeat-7g8d#1->-repeat-38fk#1->-repeat-qjz7#1->-repeat-5t6i#1,26327174,BLIND,7766400,NaN,complete,NaN,63bdb71b374a15fbe31fe02d,computer,Desktop or Laptop,Windows 10,Chrome 108.0.0.0,1500x1000,1500x1000,Start of Day 2,SLS,90,A,Pass,End of Day 1,Pass,NaN,NaN,NaN,Pass,NaN,Pass,NaN,Start of Day 2,NaN,schedule_B,schedule_B,5,2,5,feedback_r,Zone7,timelimit_screen,2000.172,NaN,NaN,,NaN,0,1,0,NaN,NaN,1,NaN,NaN,trial_right,greenBox.png,greenBox.png,blueBox.png,al2_uncon.png,5,4,NaN,NaN,0.85,0.15,0,0,1,0,Stable,Stable,1.529,0.891,1.004,1,inexpert
23,1673456718556,11/01/2023 17:05:18,1673456718577,0,11/01/2023 17:05:18,111483,5,task-qrxs,repeat-7g8d#1->-repeat-38fk#1->-repeat-qjz7#1->-repeat-5t6i#1,26327174,BLIND,7766400,NaN,complete,NaN,63bdb71b374a15fbe31fe02d,computer,Desktop or Laptop,Windows 10,Chrome 108.0.0.0,1500x1000,1500x1000,Start of Day 2,SLS,90,A,Pass,End of Day 1,Pass,NaN,NaN,NaN,Pass,NaN,Pass,NaN,Start of Day 2,NaN,schedule_B,schedule_B,5,2,6,end,Zone1,timelimit_screen,149.964,NaN,NaN,,NaN,0,1,0,NaN,NaN,1,NaN,NaN,trial_right,greenBox.png,greenBox.png,blueBox.png,al2_uncon.png,5,4,NaN,NaN,0.85,0.15,0,0,1,0,Stable,Stable,1.529,0.891,1.004,1,inexpert
24,1673456719075,11/01/2023 17:05:19,1673456719095,0,11/01/2023 17:05:19,111483,5,task-qrxs,repeat-7g8d#1->-repeat-38fk#1->-repeat-qjz7#1->-repeat-5t6i#1,26327174,BLIND,7766400,NaN,complete,NaN,63bdb71b374a15fbe31fe02d,computer,Desktop or Laptop,Windows 10,Chrome 108.0.0.0,1500x1000,1500x1000,Start of Day 2,SLS,90,A,Pass,End of Day 1,Pass,NaN,NaN,NaN,Pass,NaN,Pass,NaN,Start of Day 2,NaN,schedule_B,schedule_B,6,3,1,Screen 1,Zone1,continue_button,506,NaN,NaN,,NaN,0,1,0,NaN,NaN,NaN,NaN,NaN,trial_left,blueBox.png,greenBox.png,blueBox.png,al2_uncon.png,6,5,NaN,NaN,0.85,0.15,1,0,0,0,Stable,Stable,1.832,1.118,0.752,1.79,inexpert
25,1673456720062,11/01/2023 17:05:20,1673456720094,0,11/01/2023 17:05:20,111483,5,task-qrxs,repeat-7g8d#1->-repeat-38fk#1->-repeat-qjz7#1->-repeat-5t6i#1,26327174,BLIND,7766400,NaN,complete,NaN,63bdb71b374a15fbe31fe02d,computer,Desktop or Laptop,Windows 10,Chrome 108.0.0.0,1500x1000,1500x1000,Start of Day 2,SLS,90,A,Pass,End of Day 1,Pass,NaN,NaN,NaN,Pass,NaN,Pass,NaN,Start of Day 2,NaN,schedule_B,schedule_B,6,3,2,individual,Zone4,timelimit_screen,1000.088,NaN,NaN,,NaN,0,1,0,NaN,NaN,1,NaN,NaN,trial_left,blueBox.png,greenBox.png,blueBox.png,al2_uncon.png,6,5,NaN,NaN,0.85,0.15,1,0,0,0,Stable,Stable,1.832,1.118,0.752,1.79,inexpert
26,1673456721121,11/01/2023 17:05:21,1673456721137,0,11/01/2023 17:05:21,111483,5,task-qrxs,repeat-7g8d#1->-repeat-38fk#1->-repeat-qjz7#1->-repeat-5t6i#1,26327174,BLIND,7766400,NaN,complete,NaN,63bdb71b374a15fbe31fe02d,computer,Desktop or Laptop,Windows 10,Chrome 108.0.0.0,1500x1000,1500x1000,Start of Day 2,SLS,90,A,Pass,End of Day 1,Pass,NaN,NaN,NaN,Pass,NaN,Pass,NaN,Start of Day 2,NaN,schedule_B,schedule_B,6,3,3,offer,bluebox,response_button_image,1037.39999997616,NaN,NaN,blueBox.png,1,1,0,0,NaN,NaN,NaN,NaN,NaN,trial_left,blueBox.png,greenBox.png,blueBox.png,al2_uncon.png,6,5,NaN,NaN,0.85,0.15,1,0,0,0,Stable,Stable,1.832,1.118,0.752,1.79,inexpert
27,1673456723111,11/01/2023 17:05:23,1673456723127,0,11/01/2023 17:05:23,111483,5,task-qrxs,repeat-7g8d#1->-repeat-38fk#1->-repeat-qjz7#1->-repeat-5t6i#1,26327174,BLIND,7766400,NaN,complete,NaN,63bdb71b374a15fbe31fe02d,computer,Desktop or Laptop,Windows 10,Chrome 108.0.0.0,1500x1000,1500x1000,Start of Day 2,SLS,90,A,Pass,End of Day 1,Pass,NaN,NaN,NaN,Pass,NaN,Pass,NaN,Start of Day 2,NaN,schedule_B,schedule_B,6,3,5,feedback_r,Zone7,timelimit_screen,2000.084,NaN,NaN,,NaN,0,1,0,NaN,NaN,1,NaN,NaN,trial_left,blueBox.png,greenBox.png,blueBox.png,al2_uncon.png,6,5,NaN,NaN,0.85,0.15,1,0,0,0,Stable,Stable,1.832,1.118,0.752,1.79,inexpert
28,1673456723256,11/01/2023 17:05:23,1673456723277,0,11/01/2023 17:05:23,111483,5,task-qrxs,repeat-7g8d#1->-repeat-38fk#1->-repeat-qjz7#1->-repeat-5t6i#1,26327174,BLIND,7766400,NaN,complete,NaN,63bdb71b374a15fbe31fe02d,computer,Desktop or Laptop,Windows 10,Chrome 108.0.0.0,1500x1000,1500x1000,Start of Day 2,SLS,90,A,Pass,End of Day 1,Pass,NaN,NaN,NaN,Pass,NaN,Pass,NaN,Start of Day 2,NaN,schedule_B,schedule_B,6,3,6,end,Zone1,timelimit_screen,149.823,NaN,NaN,,NaN,0,1,0,NaN,NaN,1,NaN,NaN,trial_left,blueBox.png,greenBox.png,blueBox.png,al2_uncon.png,6,5,NaN,NaN,0.85,0.15,1,0,0,0,Stable,Stable,1.832,1.118,0.752,1.79,inexpert
29,1673456723811,11/01/2023 17:05:23,1673456723829,0,11/01/2023 17:05:23,111483,5,task-qrxs,repeat-7g8d#1->-repeat-38fk#1->-repeat-qjz7#1->-repeat-5t6i#1,26327174,BLIND,7766400,NaN,complete,NaN,63bdb71b374a15fbe31fe02d,computer,Desktop or Laptop,Windows 10,Chrome 108.0.0.0,1500x1000,1500x1000,Start of Day 2,SLS,90,A,Pass,End of Day 1,Pass,NaN,NaN,NaN,Pass,NaN,Pass,NaN,Start of Day 2,NaN,schedule_B,schedule_B,7,3,1,Screen 1,Zone1,continue_button,535.299999952316,NaN,NaN,,NaN,0,1,0,NaN,NaN,NaN,NaN,NaN,trial_right,greenBox.png,greenBox.png,blueBox.png,al2_uncon.png,7,6,NaN,NaN,0.15,0.15,0,0,1,0,Stable,Stable,3.294,0.815,1.282,2.664,inexpert
30,1673456724808,11/01/2023 17:05:24,1673456724827,0,11/01/2023 17:05:24,111483,5,task-qrxs,repeat-7g8d#1->-repeat-38fk#1->-repeat-qjz7#1->-repeat-5t6i#1,26327174,BLIND,7766400,NaN,complete,NaN,63bdb71b374a15fbe31fe02d,computer,Desktop or Laptop,Windows 10,Chrome 108.0.0.0,1500x1000,1500x1000,Start of Day 2,SLS,90,A,Pass,End of Day 1,Pass,NaN,NaN,NaN,Pass,NaN,Pass,NaN,Start of Day 2,NaN,schedule_B,schedule_B,7,3,2,individual,Zone4,timelimit_screen,1000.058,NaN,NaN,,NaN,0,1,0,NaN,NaN,1,NaN,NaN,trial_right,greenBox.png,greenBox.png,blueBox.png,al2_uncon.png,7,6,NaN,NaN,0.15,0.15,0,0,1,0,Stable,Stable,3.294,0.815,1.282,2.664,inexpert
31,1673456725556,11/01/2023 17:05:25,1673456725576,0,11/01/2023 17:05:25,111483,5,task-qrxs,repeat-7g8d#1->-repeat-38fk#1->-repeat-qjz7#1->-repeat-5t6i#1,26327174,BLIND,7766400,NaN,complete,NaN,63bdb71b374a15fbe31fe02d,computer,Desktop or Laptop,Windows 10,Chrome 108.0.0.0,1500x1000,1500x1000,Start of Day 2,SLS,90,A,Pass,End of Day 1,Pass,NaN,NaN,NaN,Pass,NaN,Pass,NaN,Start of Day 2,NaN,schedule_B,schedule_B,7,3,3,offer,Zone3,response_button_image,742.299999952316,NaN,NaN,blueBox.png,1,0,1,0,NaN,NaN,NaN,NaN,NaN,trial_right,greenBox.png,greenBox.png,blueBox.png,al2_uncon.png,7,6,NaN,NaN,0.15,0.15,0,0,1,0,Stable,Stable,3.294,0.815,1.282,2.664,inexpert
32,1673456727548,11/01/2023 17:05:27,1673456727560,0,11/01/2023 17:05:27,111483,5,task-qrxs,repeat-7g8d#1->-repeat-38fk#1->-repeat-qjz7#1->-repeat-5t6i#1,26327174,BLIND,7766400,NaN,complete,NaN,63bdb71b374a15fbe31fe02d,computer,Desktop or Laptop,Windows 10,Chrome 108.0.0.0,1500x1000,1500x1000,Start of Day 2,SLS,90,A,Pass,End of Day 1,Pass,NaN,NaN,NaN,Pass,NaN,Pass,NaN,Start of Day 2,NaN,schedule_B,schedule_B,7,3,5,feedback_r,Zone7,timelimit_screen,2000.02499999999,NaN,NaN,,NaN,0,1,0,NaN,NaN,1,NaN,NaN,trial_right,greenBox.png,greenBox.png,blueBox.png,al2_uncon.png,7,6,NaN,NaN,0.15,0.15,0,0,1,0,Stable,Stable,3.294,0.815,1.282,2.664,inexpert
33,1673456727691,11/01/2023 17:05:27,1673456727710,0,11/01/2023 17:05:27,111483,5,task-qrxs,repeat-7g8d#1->-repeat-38fk#1->-repeat-qjz7#1->-repeat-5t6i#1,26327174,BLIND,7766400,NaN,complete,NaN,63bdb71b374a15fbe31fe02d,computer,Desktop or Laptop,Windows 10,Chrome 108.0.0.0,1500x1000,1500x1000,Start of Day 2,SLS,90,A,Pass,End of Day 1,Pass,NaN,NaN,NaN,Pass,NaN,Pass,NaN,Start of Day 2,NaN,schedule_B,schedule_B,7,3,6,end,Zone1,timelimit_screen,149.982000000004,NaN,NaN,,NaN,0,1,0,NaN,NaN,1,NaN,NaN,trial_right,greenBox.png,greenBox.png,blueBox.png,al2_uncon.png,7,6,NaN,NaN,0.15,0.15,0,0,1,0,Stable,Stable,3.294,0.815,1.282,2.664,inexpert
34,1673456728171,11/01/2023 17:05:28,1673456728188,0,11/01/2023 17:05:28,111483,5,task-qrxs,repeat-7g8d#1->-repeat-38fk#1->-repeat-qjz7#1->-repeat-5t6i#1,26327174,BLIND,7766400,NaN,complete,NaN,63bdb71b374a15fbe31fe02d,computer,Desktop or Laptop,Windows 10,Chrome 108.0.0.0,1500x1000,1500x1000,Start of Day 2,SLS,90,A,Pass,End of Day 1,Pass,NaN,NaN,NaN,Pass,NaN,Pass,NaN,Start of Day 2,NaN,schedule_B,schedule_B,8,4,1,Screen 1,Zone1,continue_button,459.600000023842,NaN,NaN,,NaN,0,1,0,NaN,NaN,NaN,NaN,NaN,trial_left,greenBox.png,blueBox.png,greenBox.png,al2_uncon.png,8,7,NaN,NaN,0.15,0.15,0,0,1,1,Stable,Stable,3.269,1.37,1.786,2.328,inexpert
35,1673456729167,11/01/2023 17:05:29,1673456729177,0,11/01/2023 17:05:29,111483,5,task-qrxs,repeat-7g8d#1->-repeat-38fk#1->-repeat-qjz7#1->-repeat-5t6i#1,26327174,BLIND,7766400,NaN,complete,NaN,63bdb71b374a15fbe31fe02d,computer,Desktop or Laptop,Windows 10,Chrome 108.0.0.0,1500x1000,1500x1000,Start of Day 2,SLS,90,A,Pass,End of Day 1,Pass,NaN,NaN,NaN,Pass,NaN,Pass,NaN,Start of Day 2,NaN,schedule_B,schedule_B,8,4,2,individual,Zone4,timelimit_screen,999.457000000002,NaN,NaN,,NaN,0,1,0,NaN,NaN,1,NaN,NaN,trial_left,greenBox.png,blueBox.png,greenBox.png,al2_uncon.png,8,7,NaN,NaN,0.15,0.15,0,0,1,1,Stable,Stable,3.269,1.37,1.786,2.328,inexpert
36,1673456730038,11/01/2023 17:05:30,1673456730056,0,11/01/2023 17:05:30,111483,5,task-qrxs,repeat-7g8d#1->-repeat-38fk#1->-repeat-qjz7#1->-repeat-5t6i#1,26327174,BLIND,7766400,NaN,complete,NaN,63bdb71b374a15fbe31fe02d,computer,Desktop or Laptop,Windows 10,Chrome 108.0.0.0,1500x1000,1500x1000,Start of Day 2,SLS,90,A,Pass,End of Day 1,Pass,NaN,NaN,NaN,Pass,NaN,Pass,NaN,Start of Day 2,NaN,schedule_B,schedule_B,8,4,3,offer,bluebox,response_button_image,873.699999928474,NaN,NaN,greenBox.png,1,1,0,0,NaN,NaN,NaN,NaN,NaN,trial_left,greenBox.png,blueBox.png,greenBox.png,al2_uncon.png,8,7,NaN,NaN,0.15,0.15,0,0,1,1,Stable,Stable,3.269,1.37,1.786,2.328,inexpert
37,1673456732011,11/01/2023 17:05:32,1673456732044,0,11/01/2023 17:05:32,111483,5,task-qrxs,repeat-7g8d#1->-repeat-38fk#1->-repeat-qjz7#1->-repeat-5t6i#1,26327174,BLIND,7766400,NaN,complete,NaN,63bdb71b374a15fbe31fe02d,computer,Desktop or Laptop,Windows 10,Chrome 108.0.0.0,1500x1000,1500x1000,Start of Day 2,SLS,90,A,Pass,End of Day 1,Pass,NaN,NaN,NaN,Pass,NaN,Pass,NaN,Start of Day 2,NaN,schedule_B,schedule_B,8,4,5,feedback_r,Zone7,timelimit_screen,2000.186,NaN,NaN,,NaN,0,1,0,NaN,NaN,1,NaN,NaN,trial_left,greenBox.png,blueBox.png,greenBox.png,al2_uncon.png,8,7,NaN,NaN,0.15,0.15,0,0,1,1,Stable,Stable,3.269,1.37,1.786,2.328,inexpert
38,1673456732176,11/01/2023 17:05:32,1673456732194,0,11/01/2023 17:05:32,111483,5,task-qrxs,repeat-7g8d#1->-repeat-38fk#1->-repeat-qjz7#1->-repeat-5t6i#1,26327174,BLIND,7766400,NaN,complete,NaN,63bdb71b374a15fbe31fe02d,computer,Desktop or Laptop,Windows 10,Chrome 108.0.0.0,1500x1000,1500x1000,Start of Day 2,SLS,90,A,Pass,End of Day 1,Pass,NaN,NaN,NaN,Pass,NaN,Pass,NaN,Start of Day 2,NaN,schedule_B,schedule_B,8,4,6,end,Zone1,timelimit_screen,149.821000000004,NaN,NaN,,NaN,0,1,0,NaN,NaN,1,NaN,NaN,trial_left,greenBox.png,blueBox.png,greenBox.png,al2_uncon.png,8,7,NaN,NaN,0.15,0.15,0,0,1,1,Stable,Stable,3.269,1.37,1.786,2.328,inexpert
39,1673456732827,11/01/2023 17:05:32,1673456732847,0,11/01/2023 17:05:32,111483,5,task-qrxs,repeat-7g8d#1->-repeat-38fk#1->-repeat-qjz7#1->-repeat-5t6i#1,26327174,BLIND,7766400,NaN,complete,NaN,63bdb71b374a15fbe31fe02d,computer,Desktop or Laptop,Windows 10,Chrome 108.0.0.0,1500x1000,1500x1000,Start of Day 2,SLS,90,A,Pass,End of Day 1,Pass,NaN,NaN,NaN,Pass,NaN,Pass,NaN,Start of Day 2,NaN,schedule_B,schedule_B,9,4,1,Screen 1,Zone1,continue_button,641.899999976158,NaN,NaN,,NaN,0,1,0,NaN,NaN,NaN,NaN,NaN,trial_right,blueBox.png,blueBox.png,greenBox.png,al2_uncon.png,9,8,NaN,NaN,0.15,0.15,1,0,0,1,Stable,Stable,3.975,0.576,1.256,1.807,inexpert
40,1673456733820,11/01/2023 17:05:33,1673456733844,0,11/01/2023 17:05:33,111483,5,task-qrxs,repeat-7g8d#1->-repeat-38fk#1->-repeat-qjz7#1->-repeat-5t6i#1,26327174,BLIND,7766400,NaN,complete,NaN,63bdb71b374a15fbe31fe02d,computer,Desktop or Laptop,Windows 10,Chrome 108.0.0.0,1500x1000,1500x1000,Start of Day 2,SLS,90,A,Pass,End of Day 1,Pass,NaN,NaN,NaN,Pass,NaN,Pass,NaN,Start of Day 2,NaN,schedule_B,schedule_B,9,4,2,individual,Zone4,timelimit_screen,1000.052,NaN,NaN,,NaN,0,1,0,NaN,NaN,1,NaN,NaN,trial_right,blueBox.png,blueBox.png,greenBox.png,al2_uncon.png,9,8,NaN,NaN,0.15,0.15,1,0,0,1,Stable,Stable,3.975,0.576,1.256,1.807,inexpert
41,1673456734701,11/01/2023 17:05:34,1673456734730,0,11/01/2023 17:05:34,111483,5,task-qrxs,repeat-7g8d#1->-repeat-38fk#1->-repeat-qjz7#1->-repeat-5t6i#1,26327174,BLIND,7766400,NaN,complete,NaN,63bdb71b374a15fbe31fe02d,computer,Desktop or Laptop,Windows 10,Chrome 108.0.0.0,1500x1000,1500x1000,Start of Day 2,SLS,90,A,Pass,End of Day 1,Pass,NaN,NaN,NaN,Pass,NaN,Pass,NaN,Start of Day 2,NaN,schedule_B,schedule_B,9,4,3,offer,Zone2,response_button_image,880.400000095367,NaN,NaN,blueBox.png,1,1,0,0,NaN,NaN,NaN,NaN,NaN,trial_right,blueBox.png,blueBox.png,greenBox.png,al2_uncon.png,9,8,NaN,NaN,0.15,0.15,1,0,0,1,Stable,Stable,3.975,0.576,1.256,1.807,inexpert
42,1673456736704,11/01/2023 17:05:36,1673456736727,0,11/01/2023 17:05:36,111483,5,task-qrxs,repeat-7g8d#1->-repeat-38fk#1->-repeat-qjz7#1->-repeat-5t6i#1,26327174,BLIND,7766400,NaN,complete,NaN,63bdb71b374a15fbe31fe02d,computer,Desktop or Laptop,Windows 10,Chrome 108.0.0.0,1500x1000,1500x1000,Start of Day 2,SLS,90,A,Pass,End of Day 1,Pass,NaN,NaN,NaN,Pass,NaN,Pass,NaN,Start of Day 2,NaN,schedule_B,schedule_B,9,4,4,feedback_l,Zone7,timelimit_screen,1999.345,NaN,NaN,,NaN,0,1,0,NaN,NaN,1,NaN,NaN,trial_right,blueBox.png,blueBox.png,greenBox.png,al2_uncon.png,9,8,NaN,NaN,0.15,0.15,1,0,0,1,Stable,Stable,3.975,0.576,1.256,1.807,inexpert
43,1673456736862,11/01/2023 17:05:36,1673456736877,0,11/01/2023 17:05:36,111483,5,task-qrxs,repeat-7g8d#1->-repeat-38fk#1->-repeat-qjz7#1->-repeat-5t6i#1,26327174,BLIND,7766400,NaN,complete,NaN,63bdb71b374a15fbe31fe02d,computer,Desktop or Laptop,Windows 10,Chrome 108.0.0.0,1500x1000,1500x1000,Start of Day 2,SLS,90,A,Pass,End of Day 1,Pass,NaN,NaN,NaN,Pass,NaN,Pass,NaN,Start of Day 2,NaN,schedule_B,schedule_B,9,4,6,end,Zone1,timelimit_screen,150.122000000003,NaN,NaN,,NaN,0,1,0,NaN,NaN,1,NaN,NaN,trial_right,blueBox.png,blueBox.png,greenBox.png,al2_uncon.png,9,8,NaN,NaN,0.15,0.15,1,0,0,1,Stable,Stable,3.975,0.576,1.256,1.807,inexpert
44,1673456737574,11/01/2023 17:05:37,1673456737593,0,11/01/2023 17:05:37,111483,5,task-qrxs,repeat-7g8d#1->-repeat-38fk#1->-repeat-qjz7#1->-repeat-5t6i#1,26327174,BLIND,7766400,NaN,complete,NaN,63bdb71b374a15fbe31fe02d,computer,Desktop or Laptop,Windows 10,Chrome 108.0.0.0,1500x1000,1500x1000,Start of Day 2,SLS,90,A,Pass,End of Day 1,Pass,NaN,NaN,NaN,Pass,NaN,Pass,NaN,Start of Day 2,NaN,schedule_B,schedule_B,10,5,1,Screen 1,Zone1,continue_button,705,NaN,NaN,,NaN,0,1,0,NaN,NaN,NaN,NaN,NaN,trial_left,greenBox.png,blueBox.png,greenBox.png,al2_uncon.png,10,9,NaN,NaN,0.15,0.15,0,0,1,1,Stable,Stable,3.798,1.055,1.559,2.042,inexpert
45,1673456738559,11/01/2023 17:05:38,1673456738577,0,11/01/2023 17:05:38,111483,5,task-qrxs,repeat-7g8d#1->-repeat-38fk#1->-repeat-qjz7#1->-repeat-5t6i#1,26327174,BLIND,7766400,NaN,complete,NaN,63bdb71b374a15fbe31fe02d,computer,Desktop or Laptop,Windows 10,Chrome 108.0.0.0,1500x1000,1500x1000,Start of Day 2,SLS,90,A,Pass,End of Day 1,Pass,NaN,NaN,NaN,Pass,NaN,Pass,NaN,Start of Day 2,NaN,schedule_B,schedule_B,10,5,2,individual,Zone4,timelimit_screen,999.695,NaN,NaN,,NaN,0,1,0,NaN,NaN,1,NaN,NaN,trial_left,greenBox.png,blueBox.png,greenBox.png,al2_uncon.png,10,9,NaN,NaN,0.15,0.15,0,0,1,1,Stable,Stable,3.798,1.055,1.559,2.042,inexpert
46,1673456739101,11/01/2023 17:05:39,1673456739120,0,11/01/2023 17:05:39,111483,5,task-qrxs,repeat-7g8d#1->-repeat-38fk#1->-repeat-qjz7#1->-repeat-5t6i#1,26327174,BLIND,7766400,NaN,complete,NaN,63bdb71b374a15fbe31fe02d,computer,Desktop or Laptop,Windows 10,Chrome 108.0.0.0,1500x1000,1500x1000,Start of Day 2,SLS,90,A,Pass,End of Day 1,Pass,NaN,NaN,NaN,Pass,NaN,Pass,NaN,Start of Day 2,NaN,schedule_B,schedule_B,10,5,3,offer,bluebox,response_button_image,536.700000047684,NaN,NaN,greenBox.png,1,1,0,0,NaN,NaN,NaN,NaN,NaN,trial_left,greenBox.png,blueBox.png,greenBox.png,al2_uncon.png,10,9,NaN,NaN,0.15,0.15,0,0,1,1,Stable,Stable,3.798,1.055,1.559,2.042,inexpert
47,1673456741084,11/01/2023 17:05:41,1673456741112,0,11/01/2023 17:05:41,111483,5,task-qrxs,repeat-7g8d#1->-repeat-38fk#1->-repeat-qjz7#1->-repeat-5t6i#1,26327174,BLIND,7766400,NaN,complete,NaN,63bdb71b374a15fbe31fe02d,computer,Desktop or Laptop,Windows 10,Chrome 108.0.0.0,1500x1000,1500x1000,Start of Day 2,SLS,90,A,Pass,End of Day 1,Pass,NaN,NaN,NaN,Pass,NaN,Pass,NaN,Start of Day 2,NaN,schedule_B,schedule_B,10,5,5,feedback_r,Zone7,timelimit_screen,2000.185,NaN,NaN,,NaN,0,1,0,NaN,NaN,1,NaN,NaN,trial_left,greenBox.png,blueBox.png,greenBox.png,al2_uncon.png,10,9,NaN,NaN,0.15,0.15,0,0,1,1,Stable,Stable,3.798,1.055,1.559,2.042,inexpert
48,1673456741229,11/01/2023 17:05:41,1673456741260,0,11/01/2023 17:05:41,111483,5,task-qrxs,repeat-7g8d#1->-repeat-38fk#1->-repeat-qjz7#1->-repeat-5t6i#1,26327174,BLIND,7766400,NaN,complete,NaN,63bdb71b374a15fbe31fe02d,computer,Desktop or Laptop,Windows 10,Chrome 108.0.0.0,1500x1000,1500x1000,Start of Day 2,SLS,90,A,Pass,End of Day 1,Pass,NaN,NaN,NaN,Pass,NaN,Pass,NaN,Start of Day 2,NaN,schedule_B,schedule_B,10,5,6,end,Zone1,timelimit_screen,150.038,NaN,NaN,,NaN,0,1,0,NaN,NaN,1,NaN,NaN,trial_left,greenBox.png,blueBox.png,greenBox.png,al2_uncon.png,10,9,NaN,NaN,0.15,0.15,0,0,1,1,Stable,Stable,3.798,1.055,1.559,2.042,inexpert
49,1673456741734,11/01/2023 17:05:41,1673456741766,0,11/01/2023 17:05:41,111483,5,task-qrxs,repeat-7g8d#1->-repeat-38fk#1->-repeat-qjz7#1->-repeat-5t6i#1,26327174,BLIND,7766400,NaN,complete,NaN,63bdb71b374a15fbe31fe02d,computer,Desktop or Laptop,Windows 10,Chrome 108.0.0.0,1500x1000,1500x1000,Start of Day 2,SLS,90,A,Pass,End of Day 1,Pass,NaN,NaN,NaN,Pass,NaN,Pass,NaN,Start of Day 2,NaN,schedule_B,schedule_B,11,5,1,Screen 1,Zone1,continue_button,493,NaN,NaN,,NaN,0,1,0,NaN,NaN,NaN,NaN,NaN,trial_right,greenBox.png,greenBox.png,blueBox.png,al2_uncon.png,21,10,NaN,NaN,0.15,0.15,0,0,1,0,Stable,Stable,1.857,0.5,1.294,2.916,inexpert
50,1673456742741,11/01/2023 17:05:42,1673456742760,0,11/01/2023 17:05:42,111483,5,task-qrxs,repeat-7g8d#1->-repeat-38fk#1->-repeat-qjz7#1->-repeat-5t6i#1,26327174,BLIND,7766400,NaN,complete,NaN,63bdb71b374a15fbe31fe02d,computer,Desktop or Laptop,Windows 10,Chrome 108.0.0.0,1500x1000,1500x1000,Start of Day 2,SLS,90,A,Pass,End of Day 1,Pass,NaN,NaN,NaN,Pass,NaN,Pass,NaN,Start of Day 2,NaN,schedule_B,schedule_B,11,5,2,individual,Zone4,timelimit_screen,1000.171,NaN,NaN,,NaN,0,1,0,NaN,NaN,1,NaN,NaN,trial_right,greenBox.png,greenBox.png,blueBox.png,al2_uncon.png,21,10,NaN,NaN,0.15,0.15,0,0,1,0,Stable,Stable,1.857,0.5,1.294,2.916,inexpert
51,1673456743452,11/01/2023 17:05:43,1673456743480,0,11/01/2023 17:05:43,111483,5,task-qrxs,repeat-7g8d#1->-repeat-38fk#1->-repeat-qjz7#1->-repeat-5t6i#1,26327174,BLIND,7766400,NaN,complete,NaN,63bdb71b374a15fbe31fe02d,computer,Desktop or Laptop,Windows 10,Chrome 108.0.0.0,1500x1000,1500x1000,Start of Day 2,SLS,90,A,Pass,End of Day 1,Pass,NaN,NaN,NaN,Pass,NaN,Pass,NaN,Start of Day 2,NaN,schedule_B,schedule_B,11,5,3,offer,Zone2,response_button_image,712.699999928474,NaN,NaN,greenBox.png,1,1,0,0,NaN,NaN,NaN,NaN,NaN,trial_right,greenBox.png,greenBox.png,blueBox.png,al2_uncon.png,21,10,NaN,NaN,0.15,0.15,0,0,1,0,Stable,Stable,1.857,0.5,1.294,2.916,inexpert
52,1673456745458,11/01/2023 17:05:45,1673456745477,0,11/01/2023 17:05:45,111483,5,task-qrxs,repeat-7g8d#1->-repeat-38fk#1->-repeat-qjz7#1->-repeat-5t6i#1,26327174,BLIND,7766400,NaN,complete,NaN,63bdb71b374a15fbe31fe02d,computer,Desktop or Laptop,Windows 10,Chrome 108.0.0.0,1500x1000,1500x1000,Start of Day 2,SLS,90,A,Pass,End of Day 1,Pass,NaN,NaN,NaN,Pass,NaN,Pass,NaN,Start of Day 2,NaN,schedule_B,schedule_B,11,5,4,feedback_l,Zone7,timelimit_screen,2000.118,NaN,NaN,,NaN,0,1,0,NaN,NaN,1,NaN,NaN,trial_right,greenBox.png,greenBox.png,blueBox.png,al2_uncon.png,21,10,NaN,NaN,0.15,0.15,0,0,1,0,Stable,Stable,1.857,0.5,1.294,2.916,inexpert
53,1673456745604,11/01/2023 17:05:45,1673456745627,0,11/01/2023 17:05:45,111483,5,task-qrxs,repeat-7g8d#1->-repeat-38fk#1->-repeat-qjz7#1->-repeat-5t6i#1,26327174,BLIND,7766400,NaN,complete,NaN,63bdb71b374a15fbe31fe02d,computer,Desktop or Laptop,Windows 10,Chrome 108.0.0.0,1500x1000,1500x1000,Start of Day 2,SLS,90,A,Pass,End of Day 1,Pass,NaN,NaN,NaN,Pass,NaN,Pass,NaN,Start of Day 2,NaN,schedule_B,schedule_B,11,5,6,end,Zone1,timelimit_screen,149.928,NaN,NaN,,NaN,0,1,0,NaN,NaN,1,NaN,NaN,trial_right,greenBox.png,greenBox.png,blueBox.png,al2_uncon.png,21,10,NaN,NaN,0.15,0.15,0,0,1,0,Stable,Stable,1.857,0.5,1.294,2.916,inexpert
54,1673456746110,11/01/2023 17:05:46,1673456746141,0,11/01/2023 17:05:46,111483,5,task-qrxs,repeat-7g8d#1->-repeat-38fk#1->-repeat-qjz7#1->-repeat-5t6i#1,26327174,BLIND,7766400,NaN,complete,NaN,63bdb71b374a15fbe31fe02d,computer,Desktop or Laptop,Windows 10,Chrome 108.0.0.0,1500x1000,1500x1000,Start of Day 2,SLS,90,A,Pass,End of Day 1,Pass,NaN,NaN,NaN,Pass,NaN,Pass,NaN,Start of Day 2,NaN,schedule_B,schedule_B,12,6,1,Screen 1,Zone1,continue_button,503.300000071526,NaN,NaN,,NaN,0,1,0,NaN,NaN,NaN,NaN,NaN,trial_left,blueBox.png,greenBox.png,blueBox.png,al2_uncon.png,22,11,NaN,NaN,0.85,0.15,1,0,0,0,Stable,Stable,1.126,1.849,1.483,1.689,inexpert
55,1673456747110,11/01/2023 17:05:47,1673456747127,0,11/01/2023 17:05:47,111483,5,task-qrxs,repeat-7g8d#1->-repeat-38fk#1->-repeat-qjz7#1->-repeat-5t6i#1,26327174,BLIND,7766400,NaN,complete,NaN,63bdb71b374a15fbe31fe02d,computer,Desktop or Laptop,Windows 10,Chrome 108.0.0.0,1500x1000,1500x1000,Start of Day 2,SLS,90,A,Pass,End of Day 1,Pass,NaN,NaN,NaN,Pass,NaN,Pass,NaN,Start of Day 2,NaN,schedule_B,schedule_B,12,6,2,individual,Zone4,timelimit_screen,999.713000000003,NaN,NaN,,NaN,0,1,0,NaN,NaN,1,NaN,NaN,trial_left,blueBox.png,greenBox.png,blueBox.png,al2_uncon.png,22,11,NaN,NaN,0.85,0.15,1,0,0,0,Stable,Stable,1.126,1.849,1.483,1.689,inexpert
56,1673456747882,11/01/2023 17:05:47,1673456747911,0,11/01/2023 17:05:47,111483,5,task-qrxs,repeat-7g8d#1->-repeat-38fk#1->-repeat-qjz7#1->-repeat-5t6i#1,26327174,BLIND,7766400,NaN,complete,NaN,63bdb71b374a15fbe31fe02d,computer,Desktop or Laptop,Windows 10,Chrome 108.0.0.0,1500x1000,1500x1000,Start of Day 2,SLS,90,A,Pass,End of Day 1,Pass,NaN,NaN,NaN,Pass,NaN,Pass,NaN,Start of Day 2,NaN,schedule_B,schedule_B,12,6,3,offer,bluebox,response_button_image,777.099999904633,NaN,NaN,blueBox.png,1,1,0,0,NaN,NaN,NaN,NaN,NaN,trial_left,blueBox.png,greenBox.png,blueBox.png,al2_uncon.png,22,11,NaN,NaN,0.85,0.15,1,0,0,0,Stable,Stable,1.126,1.849,1.483,1.689,inexpert
57,1673456749889,11/01/2023 17:05:49,1673456749911,0,11/01/2023 17:05:49,111483,5,task-qrxs,repeat-7g8d#1->-repeat-38fk#1->-repeat-qjz7#1->-repeat-5t6i#1,26327174,BLIND,7766400,NaN,complete,NaN,63bdb71b374a15fbe31fe02d,computer,Desktop or Laptop,Windows 10,Chrome 108.0.0.0,1500x1000,1500x1000,Start of Day 2,SLS,90,A,Pass,End of Day 1,Pass,NaN,NaN,NaN,Pass,NaN,Pass,NaN,Start of Day 2,NaN,schedule_B,schedule_B,12,6,5,feedback_r,Zone7,timelimit_screen,2000.032,NaN,NaN,,NaN,0,1,0,NaN,NaN,1,NaN,NaN,trial_left,blueBox.png,greenBox.png,blueBox.png,al2_uncon.png,22,11,NaN,NaN,0.85,0.15,1,0,0,0,Stable,Stable,1.126,1.849,1.483,1.689,inexpert
58,1673456750041,11/01/2023 17:05:50,1673456750060,0,11/01/2023 17:05:50,111483,5,task-qrxs,repeat-7g8d#1->-repeat-38fk#1->-repeat-qjz7#1->-repeat-5t6i#1,26327174,BLIND,7766400,NaN,complete,NaN,63bdb71b374a15fbe31fe02d,computer,Desktop or Laptop,Windows 10,Chrome 108.0.0.0,1500x1000,1500x1000,Start of Day 2,SLS,90,A,Pass,End of Day 1,Pass,NaN,NaN,NaN,Pass,NaN,Pass,NaN,Start of Day 2,NaN,schedule_B,schedule_B,12,6,6,end,Zone1,timelimit_screen,149.933000000005,NaN,NaN,,NaN,0,1,0,NaN,NaN,1,NaN,NaN,trial_left,blueBox.png,greenBox.png,blueBox.png,al2_uncon.png,22,11,NaN,NaN,0.85,0.15,1,0,0,0,Stable,Stable,1.126,1.849,1.483,1.689,inexpert
59,1673456750806,11/01/2023 17:05:50,1673456750822,0,11/01/2023 17:05:50,111483,5,task-qrxs,repeat-7g8d#1->-repeat-38fk#1->-repeat-qjz7#1->-repeat-5t6i#1,26327174,BLIND,7766400,NaN,complete,NaN,63bdb71b374a15fbe31fe02d,computer,Desktop or Laptop,Windows 10,Chrome 108.0.0.0,1500x1000,1500x1000,Start of Day 2,SLS,90,A,Pass,End of Day 1,Pass,NaN,NaN,NaN,Pass,NaN,Pass,NaN,Start of Day 2,NaN,schedule_B,schedule_B,13,7,1,Screen 1,Zone1,continue_button,751.200000047684,NaN,NaN,,NaN,0,1,0,NaN,NaN,NaN,NaN,NaN,trial_left,blueBox.png,greenBox.png,blueBox.png,al2_uncon.png,23,12,NaN,NaN,0.85,0.15,1,0,0,0,Stable,Stable,2.361,0.992,0.5,1.975,inexpert
60,1673456751782,11/01/2023 17:05:51,1673456751810,0,11/01/2023 17:05:51,111483,5,task-qrxs,repeat-7g8d#1->-repeat-38fk#1->-repeat-qjz7#1->-repeat-5t6i#1,26327174,BLIND,7766400,NaN,complete,NaN,63bdb71b374a15fbe31fe02d,computer,Desktop or Laptop,Windows 10,Chrome 108.0.0.0,1500x1000,1500x1000,Start of Day 2,SLS,90,A,Pass,End of Day 1,Pass,NaN,NaN,NaN,Pass,NaN,Pass,NaN,Start of Day 2,NaN,schedule_B,schedule_B,13,7,2,individual,Zone4,timelimit_screen,1000.003,NaN,NaN,,NaN,0,1,0,NaN,NaN,1,NaN,NaN,trial_left,blueBox.png,greenBox.png,blueBox.png,al2_uncon.png,23,12,NaN,NaN,0.85,0.15,1,0,0,0,Stable,Stable,2.361,0.992,0.5,1.975,inexpert
61,1673456752710,11/01/2023 17:05:52,1673456752742,0,11/01/2023 17:05:52,111483,5,task-qrxs,repeat-7g8d#1->-repeat-38fk#1->-repeat-qjz7#1->-repeat-5t6i#1,26327174,BLIND,7766400,NaN,complete,NaN,63bdb71b374a15fbe31fe02d,computer,Desktop or Laptop,Windows 10,Chrome 108.0.0.0,1500x1000,1500x1000,Start of Day 2,SLS,90,A,Pass,End of Day 1,Pass,NaN,NaN,NaN,Pass,NaN,Pass,NaN,Start of Day 2,NaN,schedule_B,schedule_B,13,7,3,offer,bluebox,response_button_image,925.699999928474,NaN,NaN,blueBox.png,1,1,0,0,NaN,NaN,NaN,NaN,NaN,trial_left,blueBox.png,greenBox.png,blueBox.png,al2_uncon.png,23,12,NaN,NaN,0.85,0.15,1,0,0,0,Stable,Stable,2.361,0.992,0.5,1.975,inexpert
62,1673456754708,11/01/2023 17:05:54,1673456754727,0,11/01/2023 17:05:54,111483,5,task-qrxs,repeat-7g8d#1->-repeat-38fk#1->-repeat-qjz7#1->-repeat-5t6i#1,26327174,BLIND,7766400,NaN,complete,NaN,63bdb71b374a15fbe31fe02d,computer,Desktop or Laptop,Windows 10,Chrome 108.0.0.0,1500x1000,1500x1000,Start of Day 2,SLS,90,A,Pass,End of Day 1,Pass,NaN,NaN,NaN,Pass,NaN,Pass,NaN,Start of Day 2,NaN,schedule_B,schedule_B,13,7,5,feedback_r,Zone7,timelimit_screen,1999.923,NaN,NaN,,NaN,0,1,0,NaN,NaN,1,NaN,NaN,trial_left,blueBox.png,greenBox.png,blueBox.png,al2_uncon.png,23,12,NaN,NaN,0.85,0.15,1,0,0,0,Stable,Stable,2.361,0.992,0.5,1.975,inexpert
63,1673456754856,11/01/2023 17:05:54,1673456754877,0,11/01/2023 17:05:54,111483,5,task-qrxs,repeat-7g8d#1->-repeat-38fk#1->-repeat-qjz7#1->-repeat-5t6i#1,26327174,BLIND,7766400,NaN,complete,NaN,63bdb71b374a15fbe31fe02d,computer,Desktop or Laptop,Windows 10,Chrome 108.0.0.0,1500x1000,1500x1000,Start of Day 2,SLS,90,A,Pass,End of Day 1,Pass,NaN,NaN,NaN,Pass,NaN,Pass,NaN,Start of Day 2,NaN,schedule_B,schedule_B,13,7,6,end,Zone1,timelimit_screen,150.241000000002,NaN,NaN,,NaN,0,1,0,NaN,NaN,1,NaN,NaN,trial_left,blueBox.png,greenBox.png,blueBox.png,al2_uncon.png,23,12,NaN,NaN,0.85,0.15,1,0,0,0,Stable,Stable,2.361,0.992,0.5,1.975,inexpert
64,1673456757207,11/01/2023 17:05:57,1673456757223,0,11/01/2023 17:05:57,111483,5,task-qrxs,repeat-7g8d#1->-repeat-38fk#1->-repeat-qjz7#1->-repeat-5t6i#1,26327174,BLIND,7766400,NaN,complete,NaN,63bdb71b374a15fbe31fe02d,computer,Desktop or Laptop,Windows 10,Chrome 108.0.0.0,1500x1000,1500x1000,Start of Day 2,SLS,90,A,Pass,End of Day 1,Pass,NaN,NaN,NaN,Pass,NaN,Pass,NaN,Start of Day 2,NaN,schedule_B,schedule_B,14,6,1,Screen 1,Zone1,continue_button,2335.60000002384,NaN,NaN,,NaN,0,1,0,NaN,NaN,NaN,NaN,NaN,trial_right,blueBox.png,blueBox.png,greenBox.png,al2_uncon.png,24,13,NaN,NaN,0.85,0.15,1,0,0,1,Stable,Stable,1.05,1.95,1.319,1.487,inexpert
65,1673456758193,11/01/2023 17:05:58,1673456758211,0,11/01/2023 17:05:58,111483,5,task-qrxs,repeat-7g8d#1->-repeat-38fk#1->-repeat-qjz7#1->-repeat-5t6i#1,26327174,BLIND,7766400,NaN,complete,NaN,63bdb71b374a15fbe31fe02d,computer,Desktop or Laptop,Windows 10,Chrome 108.0.0.0,1500x1000,1500x1000,Start of Day 2,SLS,90,A,Pass,End of Day 1,Pass,NaN,NaN,NaN,Pass,NaN,Pass,NaN,Start of Day 2,NaN,schedule_B,schedule_B,14,6,2,individual,Zone4,timelimit_screen,1000.164,NaN,NaN,,NaN,0,1,0,NaN,NaN,1,NaN,NaN,trial_right,blueBox.png,blueBox.png,greenBox.png,al2_uncon.png,24,13,NaN,NaN,0.85,0.15,1,0,0,1,Stable,Stable,1.05,1.95,1.319,1.487,inexpert
66,1673456760314,11/01/2023 17:06:00,1673456760335,0,11/01/2023 17:06:00,111483,5,task-qrxs,repeat-7g8d#1->-repeat-38fk#1->-repeat-qjz7#1->-repeat-5t6i#1,26327174,BLIND,7766400,NaN,complete,NaN,63bdb71b374a15fbe31fe02d,computer,Desktop or Laptop,Windows 10,Chrome 108.0.0.0,1500x1000,1500x1000,Start of Day 2,SLS,90,A,Pass,End of Day 1,Pass,NaN,NaN,NaN,Pass,NaN,Pass,NaN,Start of Day 2,NaN,schedule_B,schedule_B,14,6,3,offer,Zone2,response_button_image,2117.59999990463,NaN,NaN,blueBox.png,1,1,0,0,NaN,NaN,NaN,NaN,NaN,trial_right,blueBox.png,blueBox.png,greenBox.png,al2_uncon.png,24,13,NaN,NaN,0.85,0.15,1,0,0,1,Stable,Stable,1.05,1.95,1.319,1.487,inexpert
67,1673456762309,11/01/2023 17:06:02,1673456762327,0,11/01/2023 17:06:02,111483,5,task-qrxs,repeat-7g8d#1->-repeat-38fk#1->-repeat-qjz7#1->-repeat-5t6i#1,26327174,BLIND,7766400,NaN,complete,NaN,63bdb71b374a15fbe31fe02d,computer,Desktop or Laptop,Windows 10,Chrome 108.0.0.0,1500x1000,1500x1000,Start of Day 2,SLS,90,A,Pass,End of Day 1,Pass,NaN,NaN,NaN,Pass,NaN,Pass,NaN,Start of Day 2,NaN,schedule_B,schedule_B,14,6,4,feedback_l,Zone7,timelimit_screen,2000.197,NaN,NaN,,NaN,0,1,0,NaN,NaN,1,NaN,NaN,trial_right,blueBox.png,blueBox.png,greenBox.png,al2_uncon.png,24,13,NaN,NaN,0.85,0.15,1,0,0,1,Stable,Stable,1.05,1.95,1.319,1.487,inexpert
68,1673456762451,11/01/2023 17:06:02,1673456762477,0,11/01/2023 17:06:02,111483,5,task-qrxs,repeat-7g8d#1->-repeat-38fk#1->-repeat-qjz7#1->-repeat-5t6i#1,26327174,BLIND,7766400,NaN,complete,NaN,63bdb71b374a15fbe31fe02d,computer,Desktop or Laptop,Windows 10,Chrome 108.0.0.0,1500x1000,1500x1000,Start of Day 2,SLS,90,A,Pass,End of Day 1,Pass,NaN,NaN,NaN,Pass,NaN,Pass,NaN,Start of Day 2,NaN,schedule_B,schedule_B,14,6,6,end,Zone1,timelimit_screen,150.311000000002,NaN,NaN,,NaN,0,1,0,NaN,NaN,1,NaN,NaN,trial_right,blueBox.png,blueBox.png,greenBox.png,al2_uncon.png,24,13,NaN,NaN,0.85,0.15,1,0,0,1,Stable,Stable,1.05,1.95,1.319,1.487,inexpert
69,1673456763549,11/01/2023 17:06:03,1673456763575,0,11/01/2023 17:06:03,111483,5,task-qrxs,repeat-7g8d#1->-repeat-38fk#1->-repeat-qjz7#1->-repeat-5t6i#1,26327174,BLIND,7766400,NaN,complete,NaN,63bdb71b374a15fbe31fe02d,computer,Desktop or Laptop,Windows 10,Chrome 108.0.0.0,1500x1000,1500x1000,Start of Day 2,SLS,90,A,Pass,End of Day 1,Pass,NaN,NaN,NaN,Pass,NaN,Pass,NaN,Start of Day 2,NaN,schedule_B,schedule_B,15,7,1,Screen 1,Zone1,continue_button,1086.39999997616,NaN,NaN,,NaN,0,1,0,NaN,NaN,NaN,NaN,NaN,trial_right,blueBox.png,blueBox.png,greenBox.png,al2_uncon.png,25,14,NaN,NaN,0.85,0.15,1,0,0,1,Stable,Stable,3.395,0.84,0.803,1.252,inexpert
70,1673456764533,11/01/2023 17:06:04,1673456764560,0,11/01/2023 17:06:04,111483,5,task-qrxs,repeat-7g8d#1->-repeat-38fk#1->-repeat-qjz7#1->-repeat-5t6i#1,26327174,BLIND,7766400,NaN,complete,NaN,63bdb71b374a15fbe31fe02d,computer,Desktop or Laptop,Windows 10,Chrome 108.0.0.0,1500x1000,1500x1000,Start of Day 2,SLS,90,A,Pass,End of Day 1,Pass,NaN,NaN,NaN,Pass,NaN,Pass,NaN,Start of Day 2,NaN,schedule_B,schedule_B,15,7,2,individual,Zone4,timelimit_screen,999.909,NaN,NaN,,NaN,0,1,0,NaN,NaN,1,NaN,NaN,trial_right,blueBox.png,blueBox.png,greenBox.png,al2_uncon.png,25,14,NaN,NaN,0.85,0.15,1,0,0,1,Stable,Stable,3.395,0.84,0.803,1.252,inexpert
71,1673456769673,11/01/2023 17:06:09,1673456769689,0,11/01/2023 17:06:09,111483,5,task-qrxs,repeat-7g8d#1->-repeat-38fk#1->-repeat-qjz7#1->-repeat-5t6i#1,26327174,BLIND,7766400,NaN,complete,NaN,63bdb71b374a15fbe31fe02d,computer,Desktop or Laptop,Windows 10,Chrome 108.0.0.0,1500x1000,1500x1000,Start of Day 2,SLS,90,A,Pass,End of Day 1,Pass,NaN,NaN,NaN,Pass,NaN,Pass,NaN,Start of Day 2,NaN,schedule_B,schedule_B,15,7,3,offer,Zone2,response_button_image,5123.60000002384,NaN,NaN,blueBox.png,1,1,0,0,NaN,NaN,NaN,NaN,NaN,trial_right,blueBox.png,blueBox.png,greenBox.png,al2_uncon.png,25,14,NaN,NaN,0.85,0.15,1,0,0,1,Stable,Stable,3.395,0.84,0.803,1.252,inexpert
72,1673456771651,11/01/2023 17:06:11,1673456771677,0,11/01/2023 17:06:11,111483,5,task-qrxs,repeat-7g8d#1->-repeat-38fk#1->-repeat-qjz7#1->-repeat-5t6i#1,26327174,BLIND,7766400,NaN,complete,NaN,63bdb71b374a15fbe31fe02d,computer,Desktop or Laptop,Windows 10,Chrome 108.0.0.0,1500x1000,1500x1000,Start of Day 2,SLS,90,A,Pass,End of Day 1,Pass,NaN,NaN,NaN,Pass,NaN,Pass,NaN,Start of Day 2,NaN,schedule_B,schedule_B,15,7,4,feedback_l,Zone7,timelimit_screen,1999.90700000001,NaN,NaN,,NaN,0,1,0,NaN,NaN,1,NaN,NaN,trial_right,blueBox.png,blueBox.png,greenBox.png,al2_uncon.png,25,14,NaN,NaN,0.85,0.15,1,0,0,1,Stable,Stable,3.395,0.84,0.803,1.252,inexpert
73,1673456771800,11/01/2023 17:06:11,1673456771828,0,11/01/2023 17:06:11,111483,5,task-qrxs,repeat-7g8d#1->-repeat-38fk#1->-repeat-qjz7#1->-repeat-5t6i#1,26327174,BLIND,7766400,NaN,complete,NaN,63bdb71b374a15fbe31fe02d,computer,Desktop or Laptop,Windows 10,Chrome 108.0.0.0,1500x1000,1500x1000,Start of Day 2,SLS,90,A,Pass,End of Day 1,Pass,NaN,NaN,NaN,Pass,NaN,Pass,NaN,Start of Day 2,NaN,schedule_B,schedule_B,15,7,6,end,Zone1,timelimit_screen,150.014999999999,NaN,NaN,,NaN,0,1,0,NaN,NaN,1,NaN,NaN,trial_right,blueBox.png,blueBox.png,greenBox.png,al2_uncon.png,25,14,NaN,NaN,0.85,0.15,1,0,0,1,Stable,Stable,3.395,0.84,0.803,1.252,inexpert
74,1673456794334,11/01/2023 17:06:34,1673456794362,0,11/01/2023 17:06:34,111483,5,task-qrxs,repeat-7g8d#1->-repeat-38fk#1->-repeat-qjz7#1->-repeat-5t6i#1,26327174,BLIND,7766400,NaN,complete,NaN,63bdb71b374a15fbe31fe02d,computer,Desktop or Laptop,Windows 10,Chrome 108.0.0.0,1500x1000,1500x1000,Start of Day 2,SLS,90,A,Pass,End of Day 1,Pass,NaN,NaN,NaN,Pass,NaN,Pass,NaN,Start of Day 2,NaN,schedule_B,schedule_B,16,8,1,Screen 1,Zone1,continue_button,22522.2999999523,NaN,NaN,,NaN,0,1,0,NaN,NaN,NaN,NaN,NaN,trial_left,blueBox.png,blueBox.png,greenBox.png,al2_uncon.png,26,15,NaN,NaN,0.85,0.15,1,1,1,1,Stable,Stable,2.689,1.067,1.697,2.731,inexpert
75,1673456795338,11/01/2023 17:06:35,1673456795361,0,11/01/2023 17:06:35,111483,5,task-qrxs,repeat-7g8d#1->-repeat-38fk#1->-repeat-qjz7#1->-repeat-5t6i#1,26327174,BLIND,7766400,NaN,complete,NaN,63bdb71b374a15fbe31fe02d,computer,Desktop or Laptop,Windows 10,Chrome 108.0.0.0,1500x1000,1500x1000,Start of Day 2,SLS,90,A,Pass,End of Day 1,Pass,NaN,NaN,NaN,Pass,NaN,Pass,NaN,Start of Day 2,NaN,schedule_B,schedule_B,16,8,2,individual,Zone4,timelimit_screen,1000.05200000001,NaN,NaN,,NaN,0,1,0,NaN,NaN,1,NaN,NaN,trial_left,blueBox.png,blueBox.png,greenBox.png,al2_uncon.png,26,15,NaN,NaN,0.85,0.15,1,1,1,1,Stable,Stable,2.689,1.067,1.697,2.731,inexpert
76,1673456797516,11/01/2023 17:06:37,1673456797546,0,11/01/2023 17:06:37,111483,5,task-qrxs,repeat-7g8d#1->-repeat-38fk#1->-repeat-qjz7#1->-repeat-5t6i#1,26327174,BLIND,7766400,NaN,complete,NaN,63bdb71b374a15fbe31fe02d,computer,Desktop or Laptop,Windows 10,Chrome 108.0.0.0,1500x1000,1500x1000,Start of Day 2,SLS,90,A,Pass,End of Day 1,Pass,NaN,NaN,NaN,Pass,NaN,Pass,NaN,Start of Day 2,NaN,schedule_B,schedule_B,16,8,3,offer,bluebox,response_button_image,2178.60000002384,NaN,NaN,greenBox.png,1,0,1,0,NaN,NaN,NaN,NaN,NaN,trial_left,blueBox.png,blueBox.png,greenBox.png,al2_uncon.png,26,15,NaN,NaN,0.85,0.15,1,1,1,1,Stable,Stable,2.689,1.067,1.697,2.731,inexpert
77,1673456799522,11/01/2023 17:06:39,1673456799544,0,11/01/2023 17:06:39,111483,5,task-qrxs,repeat-7g8d#1->-repeat-38fk#1->-repeat-qjz7#1->-repeat-5t6i#1,26327174,BLIND,7766400,NaN,complete,NaN,63bdb71b374a15fbe31fe02d,computer,Desktop or Laptop,Windows 10,Chrome 108.0.0.0,1500x1000,1500x1000,Start of Day 2,SLS,90,A,Pass,End of Day 1,Pass,NaN,NaN,NaN,Pass,NaN,Pass,NaN,Start of Day 2,NaN,schedule_B,schedule_B,16,8,5,feedback_r,Zone7,timelimit_screen,2000.02,NaN,NaN,,NaN,0,1,0,NaN,NaN,1,NaN,NaN,trial_left,blueBox.png,blueBox.png,greenBox.png,al2_uncon.png,26,15,NaN,NaN,0.85,0.15,1,1,1,1,Stable,Stable,2.689,1.067,1.697,2.731,inexpert
78,1673456799678,11/01/2023 17:06:39,1673456799694,0,11/01/2023 17:06:39,111483,5,task-qrxs,repeat-7g8d#1->-repeat-38fk#1->-repeat-qjz7#1->-repeat-5t6i#1,26327174,BLIND,7766400,NaN,complete,NaN,63bdb71b374a15fbe31fe02d,computer,Desktop or Laptop,Windows 10,Chrome 108.0.0.0,1500x1000,1500x1000,Start of Day 2,SLS,90,A,Pass,End of Day 1,Pass,NaN,NaN,NaN,Pass,NaN,Pass,NaN,Start of Day 2,NaN,schedule_B,schedule_B,16,8,6,end,Zone1,timelimit_screen,150.251000000004,NaN,NaN,,NaN,0,1,0,NaN,NaN,1,NaN,NaN,trial_left,blueBox.png,blueBox.png,greenBox.png,al2_uncon.png,26,15,NaN,NaN,0.85,0.15,1,1,1,1,Stable,Stable,2.689,1.067,1.697,2.731,inexpert
79,1673456800537,11/01/2023 17:06:40,1673456800565,0,11/01/2023 17:06:40,111483,5,task-qrxs,repeat-7g8d#1->-repeat-38fk#1->-repeat-qjz7#1->-repeat-5t6i#1,26327174,BLIND,7766400,NaN,complete,NaN,63bdb71b374a15fbe31fe02d,computer,Desktop or Laptop,Windows 10,Chrome 108.0.0.0,1500x1000,1500x1000,Start of Day 2,SLS,90,A,Pass,End of Day 1,Pass,NaN,NaN,NaN,Pass,NaN,Pass,NaN,Start of Day 2,NaN,schedule_B,schedule_B,17,9,1,Screen 1,Zone1,continue_button,859.299999952316,NaN,NaN,,NaN,0,1,0,NaN,NaN,NaN,NaN,NaN,trial_left,greenBox.png,greenBox.png,blueBox.png,al2_uncon.png,27,16,NaN,NaN,0.15,0.15,0,1,0,0,Stable,Stable,1.378,0.689,0.878,2.076,inexpert
80,1673456801539,11/01/2023 17:06:41,1673456801562,0,11/01/2023 17:06:41,111483,5,task-qrxs,repeat-7g8d#1->-repeat-38fk#1->-repeat-qjz7#1->-repeat-5t6i#1,26327174,BLIND,7766400,NaN,complete,NaN,63bdb71b374a15fbe31fe02d,computer,Desktop or Laptop,Windows 10,Chrome 108.0.0.0,1500x1000,1500x1000,Start of Day 2,SLS,90,A,Pass,End of Day 1,Pass,NaN,NaN,NaN,Pass,NaN,Pass,NaN,Start of Day 2,NaN,schedule_B,schedule_B,17,9,2,individual,Zone4,timelimit_screen,1000.06,NaN,NaN,,NaN,0,1,0,NaN,NaN,1,NaN,NaN,trial_left,greenBox.png,greenBox.png,blueBox.png,al2_uncon.png,27,16,NaN,NaN,0.15,0.15,0,1,0,0,Stable,Stable,1.378,0.689,0.878,2.076,inexpert
81,1673456805003,11/01/2023 17:06:45,1673456805031,0,11/01/2023 17:06:45,111483,5,task-qrxs,repeat-7g8d#1->-repeat-38fk#1->-repeat-qjz7#1->-repeat-5t6i#1,26327174,BLIND,7766400,NaN,complete,NaN,63bdb71b374a15fbe31fe02d,computer,Desktop or Laptop,Windows 10,Chrome 108.0.0.0,1500x1000,1500x1000,Start of Day 2,SLS,90,A,Pass,End of Day 1,Pass,NaN,NaN,NaN,Pass,NaN,Pass,NaN,Start of Day 2,NaN,schedule_B,schedule_B,17,9,3,offer,bluebox,response_button_image,3463.90000009537,NaN,NaN,blueBox.png,1,0,1,0,NaN,NaN,NaN,NaN,NaN,trial_left,greenBox.png,greenBox.png,blueBox.png,al2_uncon.png,27,16,NaN,NaN,0.15,0.15,0,1,0,0,Stable,Stable,1.378,0.689,0.878,2.076,inexpert
82,1673456807001,11/01/2023 17:06:47,1673456807028,0,11/01/2023 17:06:47,111483,5,task-qrxs,repeat-7g8d#1->-repeat-38fk#1->-repeat-qjz7#1->-repeat-5t6i#1,26327174,BLIND,7766400,NaN,complete,NaN,63bdb71b374a15fbe31fe02d,computer,Desktop or Laptop,Windows 10,Chrome 108.0.0.0,1500x1000,1500x1000,Start of Day 2,SLS,90,A,Pass,End of Day 1,Pass,NaN,NaN,NaN,Pass,NaN,Pass,NaN,Start of Day 2,NaN,schedule_B,schedule_B,17,9,5,feedback_r,Zone7,timelimit_screen,2000.05200000001,NaN,NaN,,NaN,0,1,0,NaN,NaN,1,NaN,NaN,trial_left,greenBox.png,greenBox.png,blueBox.png,al2_uncon.png,27,16,NaN,NaN,0.15,0.15,0,1,0,0,Stable,Stable,1.378,0.689,0.878,2.076,inexpert
83,1673456807151,11/01/2023 17:06:47,1673456807178,0,11/01/2023 17:06:47,111483,5,task-qrxs,repeat-7g8d#1->-repeat-38fk#1->-repeat-qjz7#1->-repeat-5t6i#1,26327174,BLIND,7766400,NaN,complete,NaN,63bdb71b374a15fbe31fe02d,computer,Desktop or Laptop,Windows 10,Chrome 108.0.0.0,1500x1000,1500x1000,Start of Day 2,SLS,90,A,Pass,End of Day 1,Pass,NaN,NaN,NaN,Pass,NaN,Pass,NaN,Start of Day 2,NaN,schedule_B,schedule_B,17,9,6,end,Zone1,timelimit_screen,150.396999999997,NaN,NaN,,NaN,0,1,0,NaN,NaN,1,NaN,NaN,trial_left,greenBox.png,greenBox.png,blueBox.png,al2_uncon.png,27,16,NaN,NaN,0.15,0.15,0,1,0,0,Stable,Stable,1.378,0.689,0.878,2.076,inexpert
84,1673456807983,11/01/2023 17:06:47,1673456808001,0,11/01/2023 17:06:48,111483,5,task-qrxs,repeat-7g8d#1->-repeat-38fk#1->-repeat-qjz7#1->-repeat-5t6i#1,26327174,BLIND,7766400,NaN,complete,NaN,63bdb71b374a15fbe31fe02d,computer,Desktop or Laptop,Windows 10,Chrome 108.0.0.0,1500x1000,1500x1000,Start of Day 2,SLS,90,A,Pass,End of Day 1,Pass,NaN,NaN,NaN,Pass,NaN,Pass,NaN,Start of Day 2,NaN,schedule_B,schedule_B,18,8,1,Screen 1,Zone1,continue_button,811.200000047684,NaN,NaN,,NaN,0,1,0,NaN,NaN,NaN,NaN,NaN,trial_right,greenBox.png,blueBox.png,greenBox.png,al2_uncon.png,28,17,NaN,NaN,0.15,0.15,0,1,0,1,Stable,Stable,2.714,0.739,1.975,1.134,inexpert
85,1673456808973,11/01/2023 17:06:48,1673456808996,0,11/01/2023 17:06:48,111483,5,task-qrxs,repeat-7g8d#1->-repeat-38fk#1->-repeat-qjz7#1->-repeat-5t6i#1,26327174,BLIND,7766400,NaN,complete,NaN,63bdb71b374a15fbe31fe02d,computer,Desktop or Laptop,Windows 10,Chrome 108.0.0.0,1500x1000,1500x1000,Start of Day 2,SLS,90,A,Pass,End of Day 1,Pass,NaN,NaN,NaN,Pass,NaN,Pass,NaN,Start of Day 2,NaN,schedule_B,schedule_B,18,8,2,individual,Zone4,timelimit_screen,1000.084,NaN,NaN,,NaN,0,1,0,NaN,NaN,1,NaN,NaN,trial_right,greenBox.png,blueBox.png,greenBox.png,al2_uncon.png,28,17,NaN,NaN,0.15,0.15,0,1,0,1,Stable,Stable,2.714,0.739,1.975,1.134,inexpert
86,1673456809848,11/01/2023 17:06:49,1673456809870,0,11/01/2023 17:06:49,111483,5,task-qrxs,repeat-7g8d#1->-repeat-38fk#1->-repeat-qjz7#1->-repeat-5t6i#1,26327174,BLIND,7766400,NaN,complete,NaN,63bdb71b374a15fbe31fe02d,computer,Desktop or Laptop,Windows 10,Chrome 108.0.0.0,1500x1000,1500x1000,Start of Day 2,SLS,90,A,Pass,End of Day 1,Pass,NaN,NaN,NaN,Pass,NaN,Pass,NaN,Start of Day 2,NaN,schedule_B,schedule_B,18,8,3,offer,Zone2,response_button_image,868.399999976158,NaN,NaN,blueBox.png,1,0,1,0,NaN,NaN,NaN,NaN,NaN,trial_right,greenBox.png,blueBox.png,greenBox.png,al2_uncon.png,28,17,NaN,NaN,0.15,0.15,0,1,0,1,Stable,Stable,2.714,0.739,1.975,1.134,inexpert
87,1673456811845,11/01/2023 17:06:51,1673456811862,0,11/01/2023 17:06:51,111483,5,task-qrxs,repeat-7g8d#1->-repeat-38fk#1->-repeat-qjz7#1->-repeat-5t6i#1,26327174,BLIND,7766400,NaN,complete,NaN,63bdb71b374a15fbe31fe02d,computer,Desktop or Laptop,Windows 10,Chrome 108.0.0.0,1500x1000,1500x1000,Start of Day 2,SLS,90,A,Pass,End of Day 1,Pass,NaN,NaN,NaN,Pass,NaN,Pass,NaN,Start of Day 2,NaN,schedule_B,schedule_B,18,8,4,feedback_l,Zone7,timelimit_screen,2000.086,NaN,NaN,,NaN,0,1,0,NaN,NaN,1,NaN,NaN,trial_right,greenBox.png,blueBox.png,greenBox.png,al2_uncon.png,28,17,NaN,NaN,0.15,0.15,0,1,0,1,Stable,Stable,2.714,0.739,1.975,1.134,inexpert
88,1673456811988,11/01/2023 17:06:51,1673456812012,0,11/01/2023 17:06:52,111483,5,task-qrxs,repeat-7g8d#1->-repeat-38fk#1->-repeat-qjz7#1->-repeat-5t6i#1,26327174,BLIND,7766400,NaN,complete,NaN,63bdb71b374a15fbe31fe02d,computer,Desktop or Laptop,Windows 10,Chrome 108.0.0.0,1500x1000,1500x1000,Start of Day 2,SLS,90,A,Pass,End of Day 1,Pass,NaN,NaN,NaN,Pass,NaN,Pass,NaN,Start of Day 2,NaN,schedule_B,schedule_B,18,8,6,end,Zone1,timelimit_screen,149.858999999997,NaN,NaN,,NaN,0,1,0,NaN,NaN,1,NaN,NaN,trial_right,greenBox.png,blueBox.png,greenBox.png,al2_uncon.png,28,17,NaN,NaN,0.15,0.15,0,1,0,1,Stable,Stable,2.714,0.739,1.975,1.134,inexpert
89,1673456812462,11/01/2023 17:06:52,1673456812488,0,11/01/2023 17:06:52,111483,5,task-qrxs,repeat-7g8d#1->-repeat-38fk#1->-repeat-qjz7#1->-repeat-5t6i#1,26327174,BLIND,7766400,NaN,complete,NaN,63bdb71b374a15fbe31fe02d,computer,Desktop or Laptop,Windows 10,Chrome 108.0.0.0,1500x1000,1500x1000,Start of Day 2,SLS,90,A,Pass,End of Day 1,Pass,NaN,NaN,NaN,Pass,NaN,Pass,NaN,Start of Day 2,NaN,schedule_B,schedule_B,19,9,1,Screen 1,Zone1,continue_button,465.200000047684,NaN,NaN,,NaN,0,1,0,NaN,NaN,NaN,NaN,NaN,trial_right,greenBox.png,greenBox.png,blueBox.png,al2_uncon.png,29,18,NaN,NaN,0.15,0.15,0,0,1,0,Stable,Stable,3.874,0.676,1.496,1.639,inexpert
90,1673456813462,11/01/2023 17:06:53,1673456813478,0,11/01/2023 17:06:53,111483,5,task-qrxs,repeat-7g8d#1->-repeat-38fk#1->-repeat-qjz7#1->-repeat-5t6i#1,26327174,BLIND,7766400,NaN,complete,NaN,63bdb71b374a15fbe31fe02d,computer,Desktop or Laptop,Windows 10,Chrome 108.0.0.0,1500x1000,1500x1000,Start of Day 2,SLS,90,A,Pass,End of Day 1,Pass,NaN,NaN,NaN,Pass,NaN,Pass,NaN,Start of Day 2,NaN,schedule_B,schedule_B,19,9,2,individual,Zone4,timelimit_screen,999.664000000004,NaN,NaN,,NaN,0,1,0,NaN,NaN,1,NaN,NaN,trial_right,greenBox.png,greenBox.png,blueBox.png,al2_uncon.png,29,18,NaN,NaN,0.15,0.15,0,0,1,0,Stable,Stable,3.874,0.676,1.496,1.639,inexpert
91,1673456815344,11/01/2023 17:06:55,1673456815357,0,11/01/2023 17:06:55,111483,5,task-qrxs,repeat-7g8d#1->-repeat-38fk#1->-repeat-qjz7#1->-repeat-5t6i#1,26327174,BLIND,7766400,NaN,complete,NaN,63bdb71b374a15fbe31fe02d,computer,Desktop or Laptop,Windows 10,Chrome 108.0.0.0,1500x1000,1500x1000,Start of Day 2,SLS,90,A,Pass,End of Day 1,Pass,NaN,NaN,NaN,Pass,NaN,Pass,NaN,Start of Day 2,NaN,schedule_B,schedule_B,19,9,3,offer,Zone3,response_button_image,1873.39999997616,NaN,NaN,blueBox.png,1,0,1,0,NaN,NaN,NaN,NaN,NaN,trial_right,greenBox.png,greenBox.png,blueBox.png,al2_uncon.png,29,18,NaN,NaN,0.15,0.15,0,0,1,0,Stable,Stable,3.874,0.676,1.496,1.639,inexpert
92,1673456817319,11/01/2023 17:06:57,1673456817345,0,11/01/2023 17:06:57,111483,5,task-qrxs,repeat-7g8d#1->-repeat-38fk#1->-repeat-qjz7#1->-repeat-5t6i#1,26327174,BLIND,7766400,NaN,complete,NaN,63bdb71b374a15fbe31fe02d,computer,Desktop or Laptop,Windows 10,Chrome 108.0.0.0,1500x1000,1500x1000,Start of Day 2,SLS,90,A,Pass,End of Day 1,Pass,NaN,NaN,NaN,Pass,NaN,Pass,NaN,Start of Day 2,NaN,schedule_B,schedule_B,19,9,5,feedback_r,Zone7,timelimit_screen,2000.091,NaN,NaN,,NaN,0,1,0,NaN,NaN,1,NaN,NaN,trial_right,greenBox.png,greenBox.png,blueBox.png,al2_uncon.png,29,18,NaN,NaN,0.15,0.15,0,0,1,0,Stable,Stable,3.874,0.676,1.496,1.639,inexpert
93,1673456817477,11/01/2023 17:06:57,1673456817494,0,11/01/2023 17:06:57,111483,5,task-qrxs,repeat-7g8d#1->-repeat-38fk#1->-repeat-qjz7#1->-repeat-5t6i#1,26327174,BLIND,7766400,NaN,complete,NaN,63bdb71b374a15fbe31fe02d,computer,Desktop or Laptop,Windows 10,Chrome 108.0.0.0,1500x1000,1500x1000,Start of Day 2,SLS,90,A,Pass,End of Day 1,Pass,NaN,NaN,NaN,Pass,NaN,Pass,NaN,Start of Day 2,NaN,schedule_B,schedule_B,19,9,6,end,Zone1,timelimit_screen,149.914000000004,NaN,NaN,,NaN,0,1,0,NaN,NaN,1,NaN,NaN,trial_right,greenBox.png,greenBox.png,blueBox.png,al2_uncon.png,29,18,NaN,NaN,0.15,0.15,0,0,1,0,Stable,Stable,3.874,0.676,1.496,1.639,inexpert
94,1673456818233,11/01/2023 17:06:58,1673456818247,0,11/01/2023 17:06:58,111483,5,task-qrxs,repeat-7g8d#1->-repeat-38fk#1->-repeat-qjz7#1->-repeat-5t6i#1,26327174,BLIND,7766400,NaN,complete,NaN,63bdb71b374a15fbe31fe02d,computer,Desktop or Laptop,Windows 10,Chrome 108.0.0.0,1500x1000,1500x1000,Start of Day 2,SLS,90,A,Pass,End of Day 1,Pass,NaN,NaN,NaN,Pass,NaN,Pass,NaN,Start of Day 2,NaN,schedule_B,schedule_B,20,10,1,Screen 1,Zone1,continue_button,742.100000023842,NaN,NaN,,NaN,0,1,0,NaN,NaN,NaN,NaN,NaN,trial_left,greenBox.png,greenBox.png,blueBox.png,al2_uncon.png,30,19,NaN,NaN,0.15,0.15,0,1,0,0,Stable,Stable,1.252,1.193,0.853,2.681,inexpert
95,1673456819220,11/01/2023 17:06:59,1673456819245,0,11/01/2023 17:06:59,111483,5,task-qrxs,repeat-7g8d#1->-repeat-38fk#1->-repeat-qjz7#1->-repeat-5t6i#1,26327174,BLIND,7766400,NaN,complete,NaN,63bdb71b374a15fbe31fe02d,computer,Desktop or Laptop,Windows 10,Chrome 108.0.0.0,1500x1000,1500x1000,Start of Day 2,SLS,90,A,Pass,End of Day 1,Pass,NaN,NaN,NaN,Pass,NaN,Pass,NaN,Start of Day 2,NaN,schedule_B,schedule_B,20,10,2,individual,Zone4,timelimit_screen,1000.098,NaN,NaN,,NaN,0,1,0,NaN,NaN,1,NaN,NaN,trial_left,greenBox.png,greenBox.png,blueBox.png,al2_uncon.png,30,19,NaN,NaN,0.15,0.15,0,1,0,0,Stable,Stable,1.252,1.193,0.853,2.681,inexpert
96,1673456820973,11/01/2023 17:07:00,1673456820988,0,11/01/2023 17:07:00,111483,5,task-qrxs,repeat-7g8d#1->-repeat-38fk#1->-repeat-qjz7#1->-repeat-5t6i#1,26327174,BLIND,7766400,NaN,complete,NaN,63bdb71b374a15fbe31fe02d,computer,Desktop or Laptop,Windows 10,Chrome 108.0.0.0,1500x1000,1500x1000,Start of Day 2,SLS,90,A,Pass,End of Day 1,Pass,NaN,NaN,NaN,Pass,NaN,Pass,NaN,Start of Day 2,NaN,schedule_B,schedule_B,20,10,3,offer,Zone2,response_button_image,1736.70000004768,NaN,NaN,greenBox.png,1,1,0,0,NaN,NaN,NaN,NaN,NaN,trial_left,greenBox.png,greenBox.png,blueBox.png,al2_uncon.png,30,19,NaN,NaN,0.15,0.15,0,1,0,0,Stable,Stable,1.252,1.193,0.853,2.681,inexpert
97,1673456822954,11/01/2023 17:07:02,1673456822978,0,11/01/2023 17:07:02,111483,5,task-qrxs,repeat-7g8d#1->-repeat-38fk#1->-repeat-qjz7#1->-repeat-5t6i#1,26327174,BLIND,7766400,NaN,complete,NaN,63bdb71b374a15fbe31fe02d,computer,Desktop or Laptop,Windows 10,Chrome 108.0.0.0,1500x1000,1500x1000,Start of Day 2,SLS,90,A,Pass,End of Day 1,Pass,NaN,NaN,NaN,Pass,NaN,Pass,NaN,Start of Day 2,NaN,schedule_B,schedule_B,20,10,4,feedback_l,Zone7,timelimit_screen,2000.01199999999,NaN,NaN,,NaN,0,1,0,NaN,NaN,1,NaN,NaN,trial_left,greenBox.png,greenBox.png,blueBox.png,al2_uncon.png,30,19,NaN,NaN,0.15,0.15,0,1,0,0,Stable,Stable,1.252,1.193,0.853,2.681,inexpert
98,1673456823125,11/01/2023 17:07:03,1673456823130,0,11/01/2023 17:07:03,111483,5,task-qrxs,repeat-7g8d#1->-repeat-38fk#1->-repeat-qjz7#1->-repeat-5t6i#1,26327174,BLIND,7766400,NaN,complete,NaN,63bdb71b374a15fbe31fe02d,computer,Desktop or Laptop,Windows 10,Chrome 108.0.0.0,1500x1000,1500x1000,Start of Day 2,SLS,90,A,Pass,End of Day 1,Pass,NaN,NaN,NaN,Pass,NaN,Pass,NaN,Start of Day 2,NaN,schedule_B,schedule_B,20,10,6,end,Zone1,timelimit_screen,149.823000000004,NaN,NaN,,NaN,0,1,0,NaN,NaN,1,NaN,NaN,trial_left,greenBox.png,greenBox.png,blueBox.png,al2_uncon.png,30,19,NaN,NaN,0.15,0.15,0,1,0,0,Stable,Stable,1.252,1.193,0.853,2.681,inexpert
99,1673456823647,11/01/2023 17:07:03,1673456823662,0,11/01/2023 17:07:03,111483,5,task-qrxs,repeat-7g8d#1->-repeat-38fk#1->-repeat-qjz7#1->-repeat-5t6i#1,26327174,BLIND,7766400,NaN,complete,NaN,63bdb71b374a15fbe31fe02d,computer,Desktop or Laptop,Windows 10,Chrome 108.0.0.0,1500x1000,1500x1000,Start of Day 2,SLS,90,A,Pass,End of Day 1,Pass,NaN,NaN,NaN,Pass,NaN,Pass,NaN,Start of Day 2,NaN,schedule_B,schedule_B,21,10,1,Screen 1,Zone1,continue_button,520.800000071526,NaN,NaN,,NaN,0,1,0,NaN,NaN,NaN,NaN,NaN,trial_right,greenBox.png,greenBox.png,blueBox.png,al2_uncon.png,41,20,NaN,NaN,0.15,0.15,0,0,1,0,Stable,Stable,3.521,1.723,1.37,1.655,inexpert
100,1673456824646,11/01/2023 17:07:04,1673456824662,0,11/01/2023 17:07:04,111483,5,task-qrxs,repeat-7g8d#1->-repeat-38fk#1->-repeat-qjz7#1->-repeat-5t6i#1,26327174,BLIND,7766400,NaN,complete,NaN,63bdb71b374a15fbe31fe02d,computer,Desktop or Laptop,Windows 10,Chrome 108.0.0.0,1500x1000,1500x1000,Start of Day 2,SLS,90,A,Pass,End of Day 1,Pass,NaN,NaN,NaN,Pass,NaN,Pass,NaN,Start of Day 2,NaN,schedule_B,schedule_B,21,10,2,individual,Zone4,timelimit_screen,1000.04500000001,NaN,NaN,,NaN,0,1,0,NaN,NaN,1,NaN,NaN,trial_right,greenBox.png,greenBox.png,blueBox.png,al2_uncon.png,41,20,NaN,NaN,0.15,0.15,0,0,1,0,Stable,Stable,3.521,1.723,1.37,1.655,inexpert
101,1673456826761,11/01/2023 17:07:06,1673456826788,0,11/01/2023 17:07:06,111483,5,task-qrxs,repeat-7g8d#1->-repeat-38fk#1->-repeat-qjz7#1->-repeat-5t6i#1,26327174,BLIND,7766400,NaN,complete,NaN,63bdb71b374a15fbe31fe02d,computer,Desktop or Laptop,Windows 10,Chrome 108.0.0.0,1500x1000,1500x1000,Start of Day 2,SLS,90,A,Pass,End of Day 1,Pass,NaN,NaN,NaN,Pass,NaN,Pass,NaN,Start of Day 2,NaN,schedule_B,schedule_B,21,10,3,offer,Zone3,response_button_image,2120.89999997616,NaN,NaN,blueBox.png,1,0,1,0,NaN,NaN,NaN,NaN,NaN,trial_right,greenBox.png,greenBox.png,blueBox.png,al2_uncon.png,41,20,NaN,NaN,0.15,0.15,0,0,1,0,Stable,Stable,3.521,1.723,1.37,1.655,inexpert
102,1673456828753,11/01/2023 17:07:08,1673456828778,0,11/01/2023 17:07:08,111483,5,task-qrxs,repeat-7g8d#1->-repeat-38fk#1->-repeat-qjz7#1->-repeat-5t6i#1,26327174,BLIND,7766400,NaN,complete,NaN,63bdb71b374a15fbe31fe02d,computer,Desktop or Laptop,Windows 10,Chrome 108.0.0.0,1500x1000,1500x1000,Start of Day 2,SLS,90,A,Pass,End of Day 1,Pass,NaN,NaN,NaN,Pass,NaN,Pass,NaN,Start of Day 2,NaN,schedule_B,schedule_B,21,10,5,feedback_r,Zone7,timelimit_screen,1999.92000000001,NaN,NaN,,NaN,0,1,0,NaN,NaN,1,NaN,NaN,trial_right,greenBox.png,greenBox.png,blueBox.png,al2_uncon.png,41,20,NaN,NaN,0.15,0.15,0,0,1,0,Stable,Stable,3.521,1.723,1.37,1.655,inexpert
103,1673456828910,11/01/2023 17:07:08,1673456828928,0,11/01/2023 17:07:08,111483,5,task-qrxs,repeat-7g8d#1->-repeat-38fk#1->-repeat-qjz7#1->-repeat-5t6i#1,26327174,BLIND,7766400,NaN,complete,NaN,63bdb71b374a15fbe31fe02d,computer,Desktop or Laptop,Windows 10,Chrome 108.0.0.0,1500x1000,1500x1000,Start of Day 2,SLS,90,A,Pass,End of Day 1,Pass,NaN,NaN,NaN,Pass,NaN,Pass,NaN,Start of Day 2,NaN,schedule_B,schedule_B,21,10,6,end,Zone1,timelimit_screen,150.130000000005,NaN,NaN,,NaN,0,1,0,NaN,NaN,1,NaN,NaN,trial_right,greenBox.png,greenBox.png,blueBox.png,al2_uncon.png,41,20,NaN,NaN,0.15,0.15,0,0,1,0,Stable,Stable,3.521,1.723,1.37,1.655,inexpert
104,1673456829531,11/01/2023 17:07:09,1673456829557,0,11/01/2023 17:07:09,111483,5,task-qrxs,repeat-7g8d#1->-repeat-38fk#1->-repeat-qjz7#1->-repeat-5t6i#1,26327174,BLIND,7766400,NaN,complete,NaN,63bdb71b374a15fbe31fe02d,computer,Desktop or Laptop,Windows 10,Chrome 108.0.0.0,1500x1000,1500x1000,Start of Day 2,SLS,90,A,Pass,End of Day 1,Pass,NaN,NaN,NaN,Pass,NaN,Pass,NaN,Start of Day 2,NaN,schedule_B,schedule_B,22,11,1,Screen 1,Zone1,continue_button,618.100000023842,NaN,NaN,,NaN,0,1,0,NaN,NaN,NaN,NaN,NaN,trial_left,blueBox.png,blueBox.png,greenBox.png,al2_uncon.png,42,21,NaN,NaN,0.85,0.15,1,1,1,1,Stable,Stable,2.336,0.651,1.685,2.882,inexpert
105,1673456830525,11/01/2023 17:07:10,1673456830545,0,11/01/2023 17:07:10,111483,5,task-qrxs,repeat-7g8d#1->-repeat-38fk#1->-repeat-qjz7#1->-repeat-5t6i#1,26327174,BLIND,7766400,NaN,complete,NaN,63bdb71b374a15fbe31fe02d,computer,Desktop or Laptop,Windows 10,Chrome 108.0.0.0,1500x1000,1500x1000,Start of Day 2,SLS,90,A,Pass,End of Day 1,Pass,NaN,NaN,NaN,Pass,NaN,Pass,NaN,Start of Day 2,NaN,schedule_B,schedule_B,22,11,2,individual,Zone4,timelimit_screen,999.592000000004,NaN,NaN,,NaN,0,1,0,NaN,NaN,1,NaN,NaN,trial_left,blueBox.png,blueBox.png,greenBox.png,al2_uncon.png,42,21,NaN,NaN,0.85,0.15,1,1,1,1,Stable,Stable,2.336,0.651,1.685,2.882,inexpert
106,1673456831506,11/01/2023 17:07:11,1673456831533,0,11/01/2023 17:07:11,111483,5,task-qrxs,repeat-7g8d#1->-repeat-38fk#1->-repeat-qjz7#1->-repeat-5t6i#1,26327174,BLIND,7766400,NaN,complete,NaN,63bdb71b374a15fbe31fe02d,computer,Desktop or Laptop,Windows 10,Chrome 108.0.0.0,1500x1000,1500x1000,Start of Day 2,SLS,90,A,Pass,End of Day 1,Pass,NaN,NaN,NaN,Pass,NaN,Pass,NaN,Start of Day 2,NaN,schedule_B,schedule_B,22,11,3,offer,Zone2,response_button_image,982.5,NaN,NaN,blueBox.png,1,1,0,0,NaN,NaN,NaN,NaN,NaN,trial_left,blueBox.png,blueBox.png,greenBox.png,al2_uncon.png,42,21,NaN,NaN,0.85,0.15,1,1,1,1,Stable,Stable,2.336,0.651,1.685,2.882,inexpert
107,1673456833502,11/01/2023 17:07:13,1673456833528,0,11/01/2023 17:07:13,111483,5,task-qrxs,repeat-7g8d#1->-repeat-38fk#1->-repeat-qjz7#1->-repeat-5t6i#1,26327174,BLIND,7766400,NaN,complete,NaN,63bdb71b374a15fbe31fe02d,computer,Desktop or Laptop,Windows 10,Chrome 108.0.0.0,1500x1000,1500x1000,Start of Day 2,SLS,90,A,Pass,End of Day 1,Pass,NaN,NaN,NaN,Pass,NaN,Pass,NaN,Start of Day 2,NaN,schedule_B,schedule_B,22,11,4,feedback_l,Zone7,timelimit_screen,1999.66700000002,NaN,NaN,,NaN,0,1,0,NaN,NaN,1,NaN,NaN,trial_left,blueBox.png,blueBox.png,greenBox.png,al2_uncon.png,42,21,NaN,NaN,0.85,0.15,1,1,1,1,Stable,Stable,2.336,0.651,1.685,2.882,inexpert
108,1673456833655,11/01/2023 17:07:13,1673456833679,0,11/01/2023 17:07:13,111483,5,task-qrxs,repeat-7g8d#1->-repeat-38fk#1->-repeat-qjz7#1->-repeat-5t6i#1,26327174,BLIND,7766400,NaN,complete,NaN,63bdb71b374a15fbe31fe02d,computer,Desktop or Laptop,Windows 10,Chrome 108.0.0.0,1500x1000,1500x1000,Start of Day 2,SLS,90,A,Pass,End of Day 1,Pass,NaN,NaN,NaN,Pass,NaN,Pass,NaN,Start of Day 2,NaN,schedule_B,schedule_B,22,11,6,end,Zone1,timelimit_screen,150.350000000006,NaN,NaN,,NaN,0,1,0,NaN,NaN,1,NaN,NaN,trial_left,blueBox.png,blueBox.png,greenBox.png,al2_uncon.png,42,21,NaN,NaN,0.85,0.15,1,1,1,1,Stable,Stable,2.336,0.651,1.685,2.882,inexpert
109,1673456834168,11/01/2023 17:07:14,1673456834196,0,11/01/2023 17:07:14,111483,5,task-qrxs,repeat-7g8d#1->-repeat-38fk#1->-repeat-qjz7#1->-repeat-5t6i#1,26327174,BLIND,7766400,NaN,complete,NaN,63bdb71b374a15fbe31fe02d,computer,Desktop or Laptop,Windows 10,Chrome 108.0.0.0,1500x1000,1500x1000,Start of Day 2,SLS,90,A,Pass,End of Day 1,Pass,NaN,NaN,NaN,Pass,NaN,Pass,NaN,Start of Day 2,NaN,schedule_B,schedule_B,23,11,1,Screen 1,Zone1,continue_button,505.699999928474,NaN,NaN,,NaN,0,1,0,NaN,NaN,NaN,NaN,NaN,trial_right,blueBox.png,blueBox.png,greenBox.png,al2_uncon.png,43,22,NaN,NaN,0.85,0.15,1,0,0,1,Stable,Stable,3.622,1.319,1.193,1.067,inexpert
110,1673456835172,11/01/2023 17:07:15,1673456835179,0,11/01/2023 17:07:15,111483,5,task-qrxs,repeat-7g8d#1->-repeat-38fk#1->-repeat-qjz7#1->-repeat-5t6i#1,26327174,BLIND,7766400,NaN,complete,NaN,63bdb71b374a15fbe31fe02d,computer,Desktop or Laptop,Windows 10,Chrome 108.0.0.0,1500x1000,1500x1000,Start of Day 2,SLS,90,A,Pass,End of Day 1,Pass,NaN,NaN,NaN,Pass,NaN,Pass,NaN,Start of Day 2,NaN,schedule_B,schedule_B,23,11,2,individual,Zone4,timelimit_screen,999.964999999997,NaN,NaN,,NaN,0,1,0,NaN,NaN,1,NaN,NaN,trial_right,blueBox.png,blueBox.png,greenBox.png,al2_uncon.png,43,22,NaN,NaN,0.85,0.15,1,0,0,1,Stable,Stable,3.622,1.319,1.193,1.067,inexpert
111,1673456836032,11/01/2023 17:07:16,1673456836058,0,11/01/2023 17:07:16,111483,5,task-qrxs,repeat-7g8d#1->-repeat-38fk#1->-repeat-qjz7#1->-repeat-5t6i#1,26327174,BLIND,7766400,NaN,complete,NaN,63bdb71b374a15fbe31fe02d,computer,Desktop or Laptop,Windows 10,Chrome 108.0.0.0,1500x1000,1500x1000,Start of Day 2,SLS,90,A,Pass,End of Day 1,Pass,NaN,NaN,NaN,Pass,NaN,Pass,NaN,Start of Day 2,NaN,schedule_B,schedule_B,23,11,3,offer,Zone3,response_button_image,874.100000023842,NaN,NaN,greenBox.png,1,0,1,0,NaN,NaN,NaN,NaN,NaN,trial_right,blueBox.png,blueBox.png,greenBox.png,al2_uncon.png,43,22,NaN,NaN,0.85,0.15,1,0,0,1,Stable,Stable,3.622,1.319,1.193,1.067,inexpert
112,1673456838021,11/01/2023 17:07:18,1673456838045,0,11/01/2023 17:07:18,111483,5,task-qrxs,repeat-7g8d#1->-repeat-38fk#1->-repeat-qjz7#1->-repeat-5t6i#1,26327174,BLIND,7766400,NaN,complete,NaN,63bdb71b374a15fbe31fe02d,computer,Desktop or Laptop,Windows 10,Chrome 108.0.0.0,1500x1000,1500x1000,Start of Day 2,SLS,90,A,Pass,End of Day 1,Pass,NaN,NaN,NaN,Pass,NaN,Pass,NaN,Start of Day 2,NaN,schedule_B,schedule_B,23,11,5,feedback_r,Zone7,timelimit_screen,1999.70499999999,NaN,NaN,,NaN,0,1,0,NaN,NaN,1,NaN,NaN,trial_right,blueBox.png,blueBox.png,greenBox.png,al2_uncon.png,43,22,NaN,NaN,0.85,0.15,1,0,0,1,Stable,Stable,3.622,1.319,1.193,1.067,inexpert
113,1673456838178,11/01/2023 17:07:18,1673456838195,0,11/01/2023 17:07:18,111483,5,task-qrxs,repeat-7g8d#1->-repeat-38fk#1->-repeat-qjz7#1->-repeat-5t6i#1,26327174,BLIND,7766400,NaN,complete,NaN,63bdb71b374a15fbe31fe02d,computer,Desktop or Laptop,Windows 10,Chrome 108.0.0.0,1500x1000,1500x1000,Start of Day 2,SLS,90,A,Pass,End of Day 1,Pass,NaN,NaN,NaN,Pass,NaN,Pass,NaN,Start of Day 2,NaN,schedule_B,schedule_B,23,11,6,end,Zone1,timelimit_screen,149.991000000009,NaN,NaN,,NaN,0,1,0,NaN,NaN,1,NaN,NaN,trial_right,blueBox.png,blueBox.png,greenBox.png,al2_uncon.png,43,22,NaN,NaN,0.85,0.15,1,0,0,1,Stable,Stable,3.622,1.319,1.193,1.067,inexpert
114,1673456838722,11/01/2023 17:07:18,1673456838747,0,11/01/2023 17:07:18,111483,5,task-qrxs,repeat-7g8d#1->-repeat-38fk#1->-repeat-qjz7#1->-repeat-5t6i#1,26327174,BLIND,7766400,NaN,complete,NaN,63bdb71b374a15fbe31fe02d,computer,Desktop or Laptop,Windows 10,Chrome 108.0.0.0,1500x1000,1500x1000,Start of Day 2,SLS,90,A,Pass,End of Day 1,Pass,NaN,NaN,NaN,Pass,NaN,Pass,NaN,Start of Day 2,NaN,schedule_B,schedule_B,24,12,1,Screen 1,Zone1,continue_button,541.600000023842,NaN,NaN,,NaN,0,1,0,NaN,NaN,NaN,NaN,NaN,trial_left,blueBox.png,greenBox.png,blueBox.png,al2_uncon.png,44,23,NaN,NaN,0.85,0.15,1,0,0,0,Stable,Stable,1.731,0.853,2,1.202,inexpert
115,1673456839734,11/01/2023 17:07:19,1673456839745,0,11/01/2023 17:07:19,111483,5,task-qrxs,repeat-7g8d#1->-repeat-38fk#1->-repeat-qjz7#1->-repeat-5t6i#1,26327174,BLIND,7766400,NaN,complete,NaN,63bdb71b374a15fbe31fe02d,computer,Desktop or Laptop,Windows 10,Chrome 108.0.0.0,1500x1000,1500x1000,Start of Day 2,SLS,90,A,Pass,End of Day 1,Pass,NaN,NaN,NaN,Pass,NaN,Pass,NaN,Start of Day 2,NaN,schedule_B,schedule_B,24,12,2,individual,Zone4,timelimit_screen,999.883000000002,NaN,NaN,,NaN,0,1,0,NaN,NaN,1,NaN,NaN,trial_left,blueBox.png,greenBox.png,blueBox.png,al2_uncon.png,44,23,NaN,NaN,0.85,0.15,1,0,0,0,Stable,Stable,1.731,0.853,2,1.202,inexpert
116,1673456840744,11/01/2023 17:07:20,1673456840760,0,11/01/2023 17:07:20,111483,5,task-qrxs,repeat-7g8d#1->-repeat-38fk#1->-repeat-qjz7#1->-repeat-5t6i#1,26327174,BLIND,7766400,NaN,complete,NaN,63bdb71b374a15fbe31fe02d,computer,Desktop or Laptop,Windows 10,Chrome 108.0.0.0,1500x1000,1500x1000,Start of Day 2,SLS,90,A,Pass,End of Day 1,Pass,NaN,NaN,NaN,Pass,NaN,Pass,NaN,Start of Day 2,NaN,schedule_B,schedule_B,24,12,3,offer,Zone2,response_button_image,1009.70000004768,NaN,NaN,greenBox.png,1,0,1,0,NaN,NaN,NaN,NaN,NaN,trial_left,blueBox.png,greenBox.png,blueBox.png,al2_uncon.png,44,23,NaN,NaN,0.85,0.15,1,0,0,0,Stable,Stable,1.731,0.853,2,1.202,inexpert
117,1673456842727,11/01/2023 17:07:22,1673456842745,0,11/01/2023 17:07:22,111483,5,task-qrxs,repeat-7g8d#1->-repeat-38fk#1->-repeat-qjz7#1->-repeat-5t6i#1,26327174,BLIND,7766400,NaN,complete,NaN,63bdb71b374a15fbe31fe02d,computer,Desktop or Laptop,Windows 10,Chrome 108.0.0.0,1500x1000,1500x1000,Start of Day 2,SLS,90,A,Pass,End of Day 1,Pass,NaN,NaN,NaN,Pass,NaN,Pass,NaN,Start of Day 2,NaN,schedule_B,schedule_B,24,12,4,feedback_l,Zone7,timelimit_screen,2000.209,NaN,NaN,,NaN,0,1,0,NaN,NaN,1,NaN,NaN,trial_left,blueBox.png,greenBox.png,blueBox.png,al2_uncon.png,44,23,NaN,NaN,0.85,0.15,1,0,0,0,Stable,Stable,1.731,0.853,2,1.202,inexpert
118,1673456842877,11/01/2023 17:07:22,1673456842895,0,11/01/2023 17:07:22,111483,5,task-qrxs,repeat-7g8d#1->-repeat-38fk#1->-repeat-qjz7#1->-repeat-5t6i#1,26327174,BLIND,7766400,NaN,complete,NaN,63bdb71b374a15fbe31fe02d,computer,Desktop or Laptop,Windows 10,Chrome 108.0.0.0,1500x1000,1500x1000,Start of Day 2,SLS,90,A,Pass,End of Day 1,Pass,NaN,NaN,NaN,Pass,NaN,Pass,NaN,Start of Day 2,NaN,schedule_B,schedule_B,24,12,6,end,Zone1,timelimit_screen,149.948999999993,NaN,NaN,,NaN,0,1,0,NaN,NaN,1,NaN,NaN,trial_left,blueBox.png,greenBox.png,blueBox.png,al2_uncon.png,44,23,NaN,NaN,0.85,0.15,1,0,0,0,Stable,Stable,1.731,0.853,2,1.202,inexpert
119,1673456843382,11/01/2023 17:07:23,1673456843399,0,11/01/2023 17:07:23,111483,5,task-qrxs,repeat-7g8d#1->-repeat-38fk#1->-repeat-qjz7#1->-repeat-5t6i#1,26327174,BLIND,7766400,NaN,complete,NaN,63bdb71b374a15fbe31fe02d,computer,Desktop or Laptop,Windows 10,Chrome 108.0.0.0,1500x1000,1500x1000,Start of Day 2,SLS,90,A,Pass,End of Day 1,Pass,NaN,NaN,NaN,Pass,NaN,Pass,NaN,Start of Day 2,NaN,schedule_B,schedule_B,25,13,1,Screen 1,Zone1,continue_button,492.399999976158,NaN,NaN,,NaN,0,1,0,NaN,NaN,NaN,NaN,NaN,trial_left,blueBox.png,blueBox.png,greenBox.png,al2_uncon.png,45,24,NaN,NaN,0.85,0.15,1,1,1,1,Stable,Stable,2.109,1.798,1.508,2.782,inexpert
120,1673456844371,11/01/2023 17:07:24,1673456844395,0,11/01/2023 17:07:24,111483,5,task-qrxs,repeat-7g8d#1->-repeat-38fk#1->-repeat-qjz7#1->-repeat-5t6i#1,26327174,BLIND,7766400,NaN,complete,NaN,63bdb71b374a15fbe31fe02d,computer,Desktop or Laptop,Windows 10,Chrome 108.0.0.0,1500x1000,1500x1000,Start of Day 2,SLS,90,A,Pass,End of Day 1,Pass,NaN,NaN,NaN,Pass,NaN,Pass,NaN,Start of Day 2,NaN,schedule_B,schedule_B,25,13,2,individual,Zone4,timelimit_screen,999.818999999989,NaN,NaN,,NaN,0,1,0,NaN,NaN,1,NaN,NaN,trial_left,blueBox.png,blueBox.png,greenBox.png,al2_uncon.png,45,24,NaN,NaN,0.85,0.15,1,1,1,1,Stable,Stable,2.109,1.798,1.508,2.782,inexpert
121,1673456845478,11/01/2023 17:07:25,1673456845506,0,11/01/2023 17:07:25,111483,5,task-qrxs,repeat-7g8d#1->-repeat-38fk#1->-repeat-qjz7#1->-repeat-5t6i#1,26327174,BLIND,7766400,NaN,complete,NaN,63bdb71b374a15fbe31fe02d,computer,Desktop or Laptop,Windows 10,Chrome 108.0.0.0,1500x1000,1500x1000,Start of Day 2,SLS,90,A,Pass,End of Day 1,Pass,NaN,NaN,NaN,Pass,NaN,Pass,NaN,Start of Day 2,NaN,schedule_B,schedule_B,25,13,3,offer,bluebox,response_button_image,1104.89999997616,NaN,NaN,greenBox.png,1,0,1,0,NaN,NaN,NaN,NaN,NaN,trial_left,blueBox.png,blueBox.png,greenBox.png,al2_uncon.png,45,24,NaN,NaN,0.85,0.15,1,1,1,1,Stable,Stable,2.109,1.798,1.508,2.782,inexpert
122,1673456847472,11/01/2023 17:07:27,1673456847497,0,11/01/2023 17:07:27,111483,5,task-qrxs,repeat-7g8d#1->-repeat-38fk#1->-repeat-qjz7#1->-repeat-5t6i#1,26327174,BLIND,7766400,NaN,complete,NaN,63bdb71b374a15fbe31fe02d,computer,Desktop or Laptop,Windows 10,Chrome 108.0.0.0,1500x1000,1500x1000,Start of Day 2,SLS,90,A,Pass,End of Day 1,Pass,NaN,NaN,NaN,Pass,NaN,Pass,NaN,Start of Day 2,NaN,schedule_B,schedule_B,25,13,5,feedback_r,Zone7,timelimit_screen,2000.03200000001,NaN,NaN,,NaN,0,1,0,NaN,NaN,1,NaN,NaN,trial_left,blueBox.png,blueBox.png,greenBox.png,al2_uncon.png,45,24,NaN,NaN,0.85,0.15,1,1,1,1,Stable,Stable,2.109,1.798,1.508,2.782,inexpert
123,1673456847629,11/01/2023 17:07:27,1673456847646,0,11/01/2023 17:07:27,111483,5,task-qrxs,repeat-7g8d#1->-repeat-38fk#1->-repeat-qjz7#1->-repeat-5t6i#1,26327174,BLIND,7766400,NaN,complete,NaN,63bdb71b374a15fbe31fe02d,computer,Desktop or Laptop,Windows 10,Chrome 108.0.0.0,1500x1000,1500x1000,Start of Day 2,SLS,90,A,Pass,End of Day 1,Pass,NaN,NaN,NaN,Pass,NaN,Pass,NaN,Start of Day 2,NaN,schedule_B,schedule_B,25,13,6,end,Zone1,timelimit_screen,150.484999999986,NaN,NaN,,NaN,0,1,0,NaN,NaN,1,NaN,NaN,trial_left,blueBox.png,blueBox.png,greenBox.png,al2_uncon.png,45,24,NaN,NaN,0.85,0.15,1,1,1,1,Stable,Stable,2.109,1.798,1.508,2.782,inexpert
124,1673456848096,11/01/2023 17:07:28,1673456848116,0,11/01/2023 17:07:28,111483,5,task-qrxs,repeat-7g8d#1->-repeat-38fk#1->-repeat-qjz7#1->-repeat-5t6i#1,26327174,BLIND,7766400,NaN,complete,NaN,63bdb71b374a15fbe31fe02d,computer,Desktop or Laptop,Windows 10,Chrome 108.0.0.0,1500x1000,1500x1000,Start of Day 2,SLS,90,A,Pass,End of Day 1,Pass,NaN,NaN,NaN,Pass,NaN,Pass,NaN,Start of Day 2,NaN,schedule_B,schedule_B,26,12,1,Screen 1,Zone1,continue_button,459.5,NaN,NaN,,NaN,0,1,0,NaN,NaN,NaN,NaN,NaN,trial_right,blueBox.png,greenBox.png,blueBox.png,al2_uncon.png,46,25,NaN,NaN,0.85,0.15,1,1,1,0,Stable,Stable,2.916,1.294,1.962,2.361,inexpert
125,1673456849098,11/01/2023 17:07:29,1673456849112,0,11/01/2023 17:07:29,111483,5,task-qrxs,repeat-7g8d#1->-repeat-38fk#1->-repeat-qjz7#1->-repeat-5t6i#1,26327174,BLIND,7766400,NaN,complete,NaN,63bdb71b374a15fbe31fe02d,computer,Desktop or Laptop,Windows 10,Chrome 108.0.0.0,1500x1000,1500x1000,Start of Day 2,SLS,90,A,Pass,End of Day 1,Pass,NaN,NaN,NaN,Pass,NaN,Pass,NaN,Start of Day 2,NaN,schedule_B,schedule_B,26,12,2,individual,Zone4,timelimit_screen,999.864000000001,NaN,NaN,,NaN,0,1,0,NaN,NaN,1,NaN,NaN,trial_right,blueBox.png,greenBox.png,blueBox.png,al2_uncon.png,46,25,NaN,NaN,0.85,0.15,1,1,1,0,Stable,Stable,2.916,1.294,1.962,2.361,inexpert
126,1673456850958,11/01/2023 17:07:30,1673456850985,0,11/01/2023 17:07:30,111483,5,task-qrxs,repeat-7g8d#1->-repeat-38fk#1->-repeat-qjz7#1->-repeat-5t6i#1,26327174,BLIND,7766400,NaN,complete,NaN,63bdb71b374a15fbe31fe02d,computer,Desktop or Laptop,Windows 10,Chrome 108.0.0.0,1500x1000,1500x1000,Start of Day 2,SLS,90,A,Pass,End of Day 1,Pass,NaN,NaN,NaN,Pass,NaN,Pass,NaN,Start of Day 2,NaN,schedule_B,schedule_B,26,12,3,offer,Zone3,response_button_image,1866.70000004768,NaN,NaN,blueBox.png,1,1,0,0,NaN,NaN,NaN,NaN,NaN,trial_right,blueBox.png,greenBox.png,blueBox.png,al2_uncon.png,46,25,NaN,NaN,0.85,0.15,1,1,1,0,Stable,Stable,2.916,1.294,1.962,2.361,inexpert
127,1673456852964,11/01/2023 17:07:32,1673456852979,0,11/01/2023 17:07:32,111483,5,task-qrxs,repeat-7g8d#1->-repeat-38fk#1->-repeat-qjz7#1->-repeat-5t6i#1,26327174,BLIND,7766400,NaN,complete,NaN,63bdb71b374a15fbe31fe02d,computer,Desktop or Laptop,Windows 10,Chrome 108.0.0.0,1500x1000,1500x1000,Start of Day 2,SLS,90,A,Pass,End of Day 1,Pass,NaN,NaN,NaN,Pass,NaN,Pass,NaN,Start of Day 2,NaN,schedule_B,schedule_B,26,12,5,feedback_r,Zone7,timelimit_screen,1999.89999999999,NaN,NaN,,NaN,0,1,0,NaN,NaN,1,NaN,NaN,trial_right,blueBox.png,greenBox.png,blueBox.png,al2_uncon.png,46,25,NaN,NaN,0.85,0.15,1,1,1,0,Stable,Stable,2.916,1.294,1.962,2.361,inexpert
128,1673456853615,11/01/2023 17:07:33,1673456853129,0,11/01/2023 17:07:33,111483,5,task-qrxs,repeat-7g8d#1->-repeat-38fk#1->-repeat-qjz7#1->-repeat-5t6i#1,26327174,BLIND,7766400,NaN,complete,NaN,63bdb71b374a15fbe31fe02d,computer,Desktop or Laptop,Windows 10,Chrome 108.0.0.0,1500x1000,1500x1000,Start of Day 2,SLS,90,A,Pass,End of Day 1,Pass,NaN,NaN,NaN,Pass,NaN,Pass,NaN,Start of Day 2,NaN,schedule_B,schedule_B,26,12,6,end,Zone1,timelimit_screen,150.127999999997,NaN,NaN,,NaN,0,1,0,NaN,NaN,1,NaN,NaN,trial_right,blueBox.png,greenBox.png,blueBox.png,al2_uncon.png,46,25,NaN,NaN,0.85,0.15,1,1,1,0,Stable,Stable,2.916,1.294,1.962,2.361,inexpert
129,1673456854589,11/01/2023 17:07:34,1673456854611,0,11/01/2023 17:07:34,111483,5,task-qrxs,repeat-7g8d#1->-repeat-38fk#1->-repeat-qjz7#1->-repeat-5t6i#1,26327174,BLIND,7766400,NaN,complete,NaN,63bdb71b374a15fbe31fe02d,computer,Desktop or Laptop,Windows 10,Chrome 108.0.0.0,1500x1000,1500x1000,Start of Day 2,SLS,90,A,Pass,End of Day 1,Pass,NaN,NaN,NaN,Pass,NaN,Pass,NaN,Start of Day 2,NaN,schedule_B,schedule_B,27,13,1,Screen 1,Zone1,continue_button,1471.20000004768,NaN,NaN,,NaN,0,1,0,NaN,NaN,NaN,NaN,NaN,trial_right,blueBox.png,blueBox.png,greenBox.png,al2_uncon.png,47,26,NaN,NaN,0.85,0.15,1,0,0,1,Stable,Stable,2.487,1.697,1.13,1.286,inexpert
130,1673456855579,11/01/2023 17:07:35,1673456855596,0,11/01/2023 17:07:35,111483,5,task-qrxs,repeat-7g8d#1->-repeat-38fk#1->-repeat-qjz7#1->-repeat-5t6i#1,26327174,BLIND,7766400,NaN,complete,NaN,63bdb71b374a15fbe31fe02d,computer,Desktop or Laptop,Windows 10,Chrome 108.0.0.0,1500x1000,1500x1000,Start of Day 2,SLS,90,A,Pass,End of Day 1,Pass,NaN,NaN,NaN,Pass,NaN,Pass,NaN,Start of Day 2,NaN,schedule_B,schedule_B,27,13,2,individual,Zone4,timelimit_screen,1000.489,NaN,NaN,,NaN,0,1,0,NaN,NaN,1,NaN,NaN,trial_right,blueBox.png,blueBox.png,greenBox.png,al2_uncon.png,47,26,NaN,NaN,0.85,0.15,1,0,0,1,Stable,Stable,2.487,1.697,1.13,1.286,inexpert
131,1673456856954,11/01/2023 17:07:36,1673456856973,0,11/01/2023 17:07:36,111483,5,task-qrxs,repeat-7g8d#1->-repeat-38fk#1->-repeat-qjz7#1->-repeat-5t6i#1,26327174,BLIND,7766400,NaN,complete,NaN,63bdb71b374a15fbe31fe02d,computer,Desktop or Laptop,Windows 10,Chrome 108.0.0.0,1500x1000,1500x1000,Start of Day 2,SLS,90,A,Pass,End of Day 1,Pass,NaN,NaN,NaN,Pass,NaN,Pass,NaN,Start of Day 2,NaN,schedule_B,schedule_B,27,13,3,offer,Zone3,response_button_image,1371.60000002384,NaN,NaN,greenBox.png,1,0,1,0,NaN,NaN,NaN,NaN,NaN,trial_right,blueBox.png,blueBox.png,greenBox.png,al2_uncon.png,47,26,NaN,NaN,0.85,0.15,1,0,0,1,Stable,Stable,2.487,1.697,1.13,1.286,inexpert
132,1673456858946,11/01/2023 17:07:38,1673456858962,0,11/01/2023 17:07:38,111483,5,task-qrxs,repeat-7g8d#1->-repeat-38fk#1->-repeat-qjz7#1->-repeat-5t6i#1,26327174,BLIND,7766400,NaN,complete,NaN,63bdb71b374a15fbe31fe02d,computer,Desktop or Laptop,Windows 10,Chrome 108.0.0.0,1500x1000,1500x1000,Start of Day 2,SLS,90,A,Pass,End of Day 1,Pass,NaN,NaN,NaN,Pass,NaN,Pass,NaN,Start of Day 2,NaN,schedule_B,schedule_B,27,13,5,feedback_r,Zone7,timelimit_screen,1999.601,NaN,NaN,,NaN,0,1,0,NaN,NaN,1,NaN,NaN,trial_right,blueBox.png,blueBox.png,greenBox.png,al2_uncon.png,47,26,NaN,NaN,0.85,0.15,1,0,0,1,Stable,Stable,2.487,1.697,1.13,1.286,inexpert
133,1673456859090,11/01/2023 17:07:39,1673456859112,0,11/01/2023 17:07:39,111483,5,task-qrxs,repeat-7g8d#1->-repeat-38fk#1->-repeat-qjz7#1->-repeat-5t6i#1,26327174,BLIND,7766400,NaN,complete,NaN,63bdb71b374a15fbe31fe02d,computer,Desktop or Laptop,Windows 10,Chrome 108.0.0.0,1500x1000,1500x1000,Start of Day 2,SLS,90,A,Pass,End of Day 1,Pass,NaN,NaN,NaN,Pass,NaN,Pass,NaN,Start of Day 2,NaN,schedule_B,schedule_B,27,13,6,end,Zone1,timelimit_screen,150.382000000012,NaN,NaN,,NaN,0,1,0,NaN,NaN,1,NaN,NaN,trial_right,blueBox.png,blueBox.png,greenBox.png,al2_uncon.png,47,26,NaN,NaN,0.85,0.15,1,0,0,1,Stable,Stable,2.487,1.697,1.13,1.286,inexpert
134,1673456859675,11/01/2023 17:07:39,1673456859691,0,11/01/2023 17:07:39,111483,5,task-qrxs,repeat-7g8d#1->-repeat-38fk#1->-repeat-qjz7#1->-repeat-5t6i#1,26327174,BLIND,7766400,NaN,complete,NaN,63bdb71b374a15fbe31fe02d,computer,Desktop or Laptop,Windows 10,Chrome 108.0.0.0,1500x1000,1500x1000,Start of Day 2,SLS,90,A,Pass,End of Day 1,Pass,NaN,NaN,NaN,Pass,NaN,Pass,NaN,Start of Day 2,NaN,schedule_B,schedule_B,28,14,1,Screen 1,Zone1,continue_button,568.399999976158,NaN,NaN,,NaN,0,1,0,NaN,NaN,NaN,NaN,NaN,trial_left,blueBox.png,greenBox.png,blueBox.png,al2_uncon.png,48,27,NaN,NaN,0.85,0.15,1,0,0,0,Stable,Stable,3.824,1.634,0.992,2.244,inexpert
135,1673456860659,11/01/2023 17:07:40,1673456860678,0,11/01/2023 17:07:40,111483,5,task-qrxs,repeat-7g8d#1->-repeat-38fk#1->-repeat-qjz7#1->-repeat-5t6i#1,26327174,BLIND,7766400,NaN,complete,NaN,63bdb71b374a15fbe31fe02d,computer,Desktop or Laptop,Windows 10,Chrome 108.0.0.0,1500x1000,1500x1000,Start of Day 2,SLS,90,A,Pass,End of Day 1,Pass,NaN,NaN,NaN,Pass,NaN,Pass,NaN,Start of Day 2,NaN,schedule_B,schedule_B,28,14,2,individual,Zone4,timelimit_screen,999.785000000003,NaN,NaN,,NaN,0,1,0,NaN,NaN,1,NaN,NaN,trial_left,blueBox.png,greenBox.png,blueBox.png,al2_uncon.png,48,27,NaN,NaN,0.85,0.15,1,0,0,0,Stable,Stable,3.824,1.634,0.992,2.244,inexpert
136,1673456861397,11/01/2023 17:07:41,1673456861410,0,11/01/2023 17:07:41,111483,5,task-qrxs,repeat-7g8d#1->-repeat-38fk#1->-repeat-qjz7#1->-repeat-5t6i#1,26327174,BLIND,7766400,NaN,complete,NaN,63bdb71b374a15fbe31fe02d,computer,Desktop or Laptop,Windows 10,Chrome 108.0.0.0,1500x1000,1500x1000,Start of Day 2,SLS,90,A,Pass,End of Day 1,Pass,NaN,NaN,NaN,Pass,NaN,Pass,NaN,Start of Day 2,NaN,schedule_B,schedule_B,28,14,3,offer,Zone2,response_button_image,726.700000047684,NaN,NaN,greenBox.png,1,0,1,0,NaN,NaN,NaN,NaN,NaN,trial_left,blueBox.png,greenBox.png,blueBox.png,al2_uncon.png,48,27,NaN,NaN,0.85,0.15,1,0,0,0,Stable,Stable,3.824,1.634,0.992,2.244,inexpert
137,1673456863373,11/01/2023 17:07:43,1673456863395,0,11/01/2023 17:07:43,111483,5,task-qrxs,repeat-7g8d#1->-repeat-38fk#1->-repeat-qjz7#1->-repeat-5t6i#1,26327174,BLIND,7766400,NaN,complete,NaN,63bdb71b374a15fbe31fe02d,computer,Desktop or Laptop,Windows 10,Chrome 108.0.0.0,1500x1000,1500x1000,Start of Day 2,SLS,90,A,Pass,End of Day 1,Pass,NaN,NaN,NaN,Pass,NaN,Pass,NaN,Start of Day 2,NaN,schedule_B,schedule_B,28,14,4,feedback_l,Zone7,timelimit_screen,2000.08499999999,NaN,NaN,,NaN,0,1,0,NaN,NaN,1,NaN,NaN,trial_left,blueBox.png,greenBox.png,blueBox.png,al2_uncon.png,48,27,NaN,NaN,0.85,0.15,1,0,0,0,Stable,Stable,3.824,1.634,0.992,2.244,inexpert
138,1673456863519,11/01/2023 17:07:43,1673456863546,0,11/01/2023 17:07:43,111483,5,task-qrxs,repeat-7g8d#1->-repeat-38fk#1->-repeat-qjz7#1->-repeat-5t6i#1,26327174,BLIND,7766400,NaN,complete,NaN,63bdb71b374a15fbe31fe02d,computer,Desktop or Laptop,Windows 10,Chrome 108.0.0.0,1500x1000,1500x1000,Start of Day 2,SLS,90,A,Pass,End of Day 1,Pass,NaN,NaN,NaN,Pass,NaN,Pass,NaN,Start of Day 2,NaN,schedule_B,schedule_B,28,14,6,end,Zone1,timelimit_screen,149.885999999999,NaN,NaN,,NaN,0,1,0,NaN,NaN,1,NaN,NaN,trial_left,blueBox.png,greenBox.png,blueBox.png,al2_uncon.png,48,27,NaN,NaN,0.85,0.15,1,0,0,0,Stable,Stable,3.824,1.634,0.992,2.244,inexpert
139,1673456864554,11/01/2023 17:07:44,1673456864571,0,11/01/2023 17:07:44,111483,5,task-qrxs,repeat-7g8d#1->-repeat-38fk#1->-repeat-qjz7#1->-repeat-5t6i#1,26327174,BLIND,7766400,NaN,complete,NaN,63bdb71b374a15fbe31fe02d,computer,Desktop or Laptop,Windows 10,Chrome 108.0.0.0,1500x1000,1500x1000,Start of Day 2,SLS,90,A,Pass,End of Day 1,Pass,NaN,NaN,NaN,Pass,NaN,Pass,NaN,Start of Day 2,NaN,schedule_B,schedule_B,29,14,1,Screen 1,Zone1,continue_button,1015,NaN,NaN,,NaN,0,1,0,NaN,NaN,NaN,NaN,NaN,trial_right,blueBox.png,blueBox.png,greenBox.png,al2_uncon.png,49,28,NaN,NaN,0.85,0.15,1,0,0,1,Stable,Stable,2.84,1.937,1.723,2.815,inexpert
140,1673456865536,11/01/2023 17:07:45,1673456865562,0,11/01/2023 17:07:45,111483,5,task-qrxs,repeat-7g8d#1->-repeat-38fk#1->-repeat-qjz7#1->-repeat-5t6i#1,26327174,BLIND,7766400,NaN,complete,NaN,63bdb71b374a15fbe31fe02d,computer,Desktop or Laptop,Windows 10,Chrome 108.0.0.0,1500x1000,1500x1000,Start of Day 2,SLS,90,A,Pass,End of Day 1,Pass,NaN,NaN,NaN,Pass,NaN,Pass,NaN,Start of Day 2,NaN,schedule_B,schedule_B,29,14,2,individual,Zone4,timelimit_screen,1000.057,NaN,NaN,,NaN,0,1,0,NaN,NaN,1,NaN,NaN,trial_right,blueBox.png,blueBox.png,greenBox.png,al2_uncon.png,49,28,NaN,NaN,0.85,0.15,1,0,0,1,Stable,Stable,2.84,1.937,1.723,2.815,inexpert
141,1673456867042,11/01/2023 17:07:47,1673456867055,0,11/01/2023 17:07:47,111483,5,task-qrxs,repeat-7g8d#1->-repeat-38fk#1->-repeat-qjz7#1->-repeat-5t6i#1,26327174,BLIND,7766400,NaN,complete,NaN,63bdb71b374a15fbe31fe02d,computer,Desktop or Laptop,Windows 10,Chrome 108.0.0.0,1500x1000,1500x1000,Start of Day 2,SLS,90,A,Pass,End of Day 1,Pass,NaN,NaN,NaN,Pass,NaN,Pass,NaN,Start of Day 2,NaN,schedule_B,schedule_B,29,14,3,offer,Zone3,response_button_image,1487,NaN,NaN,greenBox.png,1,0,1,0,NaN,NaN,NaN,NaN,NaN,trial_right,blueBox.png,blueBox.png,greenBox.png,al2_uncon.png,49,28,NaN,NaN,0.85,0.15,1,0,0,1,Stable,Stable,2.84,1.937,1.723,2.815,inexpert
142,1673456869177,11/01/2023 17:07:49,1673456869045,0,11/01/2023 17:07:49,111483,5,task-qrxs,repeat-7g8d#1->-repeat-38fk#1->-repeat-qjz7#1->-repeat-5t6i#1,26327174,BLIND,7766400,NaN,complete,NaN,63bdb71b374a15fbe31fe02d,computer,Desktop or Laptop,Windows 10,Chrome 108.0.0.0,1500x1000,1500x1000,Start of Day 2,SLS,90,A,Pass,End of Day 1,Pass,NaN,NaN,NaN,Pass,NaN,Pass,NaN,Start of Day 2,NaN,schedule_B,schedule_B,29,14,5,feedback_r,Zone7,timelimit_screen,2000.03199999998,NaN,NaN,,NaN,0,1,0,NaN,NaN,1,NaN,NaN,trial_right,blueBox.png,blueBox.png,greenBox.png,al2_uncon.png,49,28,NaN,NaN,0.85,0.15,1,0,0,1,Stable,Stable,2.84,1.937,1.723,2.815,inexpert
143,1673456869219,11/01/2023 17:07:49,1673456869197,0,11/01/2023 17:07:49,111483,5,task-qrxs,repeat-7g8d#1->-repeat-38fk#1->-repeat-qjz7#1->-repeat-5t6i#1,26327174,BLIND,7766400,NaN,complete,NaN,63bdb71b374a15fbe31fe02d,computer,Desktop or Laptop,Windows 10,Chrome 108.0.0.0,1500x1000,1500x1000,Start of Day 2,SLS,90,A,Pass,End of Day 1,Pass,NaN,NaN,NaN,Pass,NaN,Pass,NaN,Start of Day 2,NaN,schedule_B,schedule_B,29,14,6,end,Zone1,timelimit_screen,149.910000000003,NaN,NaN,,NaN,0,1,0,NaN,NaN,1,NaN,NaN,trial_right,blueBox.png,blueBox.png,greenBox.png,al2_uncon.png,49,28,NaN,NaN,0.85,0.15,1,0,0,1,Stable,Stable,2.84,1.937,1.723,2.815,inexpert
144,1673456870430,11/01/2023 17:07:50,1673456870446,0,11/01/2023 17:07:50,111483,5,task-qrxs,repeat-7g8d#1->-repeat-38fk#1->-repeat-qjz7#1->-repeat-5t6i#1,26327174,BLIND,7766400,NaN,complete,NaN,63bdb71b374a15fbe31fe02d,computer,Desktop or Laptop,Windows 10,Chrome 108.0.0.0,1500x1000,1500x1000,Start of Day 2,SLS,90,A,Pass,End of Day 1,Pass,NaN,NaN,NaN,Pass,NaN,Pass,NaN,Start of Day 2,NaN,schedule_B,schedule_B,30,15,1,Screen 1,Zone1,continue_button,1237.69999992847,NaN,NaN,,NaN,0,1,0,NaN,NaN,NaN,NaN,NaN,trial_right,blueBox.png,blueBox.png,greenBox.png,al2_uncon.png,50,29,NaN,NaN,0.85,0.15,1,0,0,1,Stable,Stable,2.941,1.71,0.664,1.336,inexpert
145,1673456871421,11/01/2023 17:07:51,1673456871445,0,11/01/2023 17:07:51,111483,5,task-qrxs,repeat-7g8d#1->-repeat-38fk#1->-repeat-qjz7#1->-repeat-5t6i#1,26327174,BLIND,7766400,NaN,complete,NaN,63bdb71b374a15fbe31fe02d,computer,Desktop or Laptop,Windows 10,Chrome 108.0.0.0,1500x1000,1500x1000,Start of Day 2,SLS,90,A,Pass,End of Day 1,Pass,NaN,NaN,NaN,Pass,NaN,Pass,NaN,Start of Day 2,NaN,schedule_B,schedule_B,30,15,2,individual,Zone4,timelimit_screen,1000.09700000001,NaN,NaN,,NaN,0,1,0,NaN,NaN,1,NaN,NaN,trial_right,blueBox.png,blueBox.png,greenBox.png,al2_uncon.png,50,29,NaN,NaN,0.85,0.15,1,0,0,1,Stable,Stable,2.941,1.71,0.664,1.336,inexpert
146,1673456872947,11/01/2023 17:07:52,1673456872957,0,11/01/2023 17:07:52,111483,5,task-qrxs,repeat-7g8d#1->-repeat-38fk#1->-repeat-qjz7#1->-repeat-5t6i#1,26327174,BLIND,7766400,NaN,complete,NaN,63bdb71b374a15fbe31fe02d,computer,Desktop or Laptop,Windows 10,Chrome 108.0.0.0,1500x1000,1500x1000,Start of Day 2,SLS,90,A,Pass,End of Day 1,Pass,NaN,NaN,NaN,Pass,NaN,Pass,NaN,Start of Day 2,NaN,schedule_B,schedule_B,30,15,3,offer,Zone2,response_button_image,1506.89999997616,NaN,NaN,blueBox.png,1,1,0,0,NaN,NaN,NaN,NaN,NaN,trial_right,blueBox.png,blueBox.png,greenBox.png,al2_uncon.png,50,29,NaN,NaN,0.85,0.15,1,0,0,1,Stable,Stable,2.941,1.71,0.664,1.336,inexpert
147,1673456874927,11/01/2023 17:07:54,1673456874945,0,11/01/2023 17:07:54,111483,5,task-qrxs,repeat-7g8d#1->-repeat-38fk#1->-repeat-qjz7#1->-repeat-5t6i#1,26327174,BLIND,7766400,NaN,complete,NaN,63bdb71b374a15fbe31fe02d,computer,Desktop or Laptop,Windows 10,Chrome 108.0.0.0,1500x1000,1500x1000,Start of Day 2,SLS,90,A,Pass,End of Day 1,Pass,NaN,NaN,NaN,Pass,NaN,Pass,NaN,Start of Day 2,NaN,schedule_B,schedule_B,30,15,4,feedback_l,Zone7,timelimit_screen,2000.03899999999,NaN,NaN,,NaN,0,1,0,NaN,NaN,1,NaN,NaN,trial_right,blueBox.png,blueBox.png,greenBox.png,al2_uncon.png,50,29,NaN,NaN,0.85,0.15,1,0,0,1,Stable,Stable,2.941,1.71,0.664,1.336,inexpert
148,1673456875078,11/01/2023 17:07:55,1673456875095,0,11/01/2023 17:07:55,111483,5,task-qrxs,repeat-7g8d#1->-repeat-38fk#1->-repeat-qjz7#1->-repeat-5t6i#1,26327174,BLIND,7766400,NaN,complete,NaN,63bdb71b374a15fbe31fe02d,computer,Desktop or Laptop,Windows 10,Chrome 108.0.0.0,1500x1000,1500x1000,Start of Day 2,SLS,90,A,Pass,End of Day 1,Pass,NaN,NaN,NaN,Pass,NaN,Pass,NaN,Start of Day 2,NaN,schedule_B,schedule_B,30,15,6,end,Zone1,timelimit_screen,149.831999999995,NaN,NaN,,NaN,0,1,0,NaN,NaN,1,NaN,NaN,trial_right,blueBox.png,blueBox.png,greenBox.png,al2_uncon.png,50,29,NaN,NaN,0.85,0.15,1,0,0,1,Stable,Stable,2.941,1.71,0.664,1.336,inexpert
149,1673456875643,11/01/2023 17:07:55,1673456875661,0,11/01/2023 17:07:55,111483,5,task-qrxs,repeat-7g8d#1->-repeat-38fk#1->-repeat-qjz7#1->-repeat-5t6i#1,26327174,BLIND,7766400,NaN,complete,NaN,63bdb71b374a15fbe31fe02d,computer,Desktop or Laptop,Windows 10,Chrome 108.0.0.0,1500x1000,1500x1000,Start of Day 2,SLS,90,A,Pass,End of Day 1,Pass,NaN,NaN,NaN,Pass,NaN,Pass,NaN,Start of Day 2,NaN,schedule_B,schedule_B,31,15,1,Screen 1,Zone1,continue_button,555.300000071526,NaN,NaN,,NaN,0,1,0,NaN,NaN,NaN,NaN,NaN,trial_left,blueBox.png,greenBox.png,blueBox.png,al2_uncon.png,61,30,NaN,NaN,0.85,0.15,1,0,0,0,Stable,Stable,2.79,1.735,0.601,2.345,inexpert
150,1673456876634,11/01/2023 17:07:56,1673456876645,0,11/01/2023 17:07:56,111483,5,task-qrxs,repeat-7g8d#1->-repeat-38fk#1->-repeat-qjz7#1->-repeat-5t6i#1,26327174,BLIND,7766400,NaN,complete,NaN,63bdb71b374a15fbe31fe02d,computer,Desktop or Laptop,Windows 10,Chrome 108.0.0.0,1500x1000,1500x1000,Start of Day 2,SLS,90,A,Pass,End of Day 1,Pass,NaN,NaN,NaN,Pass,NaN,Pass,NaN,Start of Day 2,NaN,schedule_B,schedule_B,31,15,2,individual,Zone4,timelimit_screen,1000.09,NaN,NaN,,NaN,0,1,0,NaN,NaN,1,NaN,NaN,trial_left,blueBox.png,greenBox.png,blueBox.png,al2_uncon.png,61,30,NaN,NaN,0.85,0.15,1,0,0,0,Stable,Stable,2.79,1.735,0.601,2.345,inexpert
151,1673456877485,11/01/2023 17:07:57,1673456877502,0,11/01/2023 17:07:57,111483,5,task-qrxs,repeat-7g8d#1->-repeat-38fk#1->-repeat-qjz7#1->-repeat-5t6i#1,26327174,BLIND,7766400,NaN,complete,NaN,63bdb71b374a15fbe31fe02d,computer,Desktop or Laptop,Windows 10,Chrome 108.0.0.0,1500x1000,1500x1000,Start of Day 2,SLS,90,A,Pass,End of Day 1,Pass,NaN,NaN,NaN,Pass,NaN,Pass,NaN,Start of Day 2,NaN,schedule_B,schedule_B,31,15,3,offer,bluebox,response_button_image,851.5,NaN,NaN,blueBox.png,1,1,0,0,NaN,NaN,NaN,NaN,NaN,trial_left,blueBox.png,greenBox.png,blueBox.png,al2_uncon.png,61,30,NaN,NaN,0.85,0.15,1,0,0,0,Stable,Stable,2.79,1.735,0.601,2.345,inexpert
152,1673456879464,11/01/2023 17:07:59,1673456879495,0,11/01/2023 17:07:59,111483,5,task-qrxs,repeat-7g8d#1->-repeat-38fk#1->-repeat-qjz7#1->-repeat-5t6i#1,26327174,BLIND,7766400,NaN,complete,NaN,63bdb71b374a15fbe31fe02d,computer,Desktop or Laptop,Windows 10,Chrome 108.0.0.0,1500x1000,1500x1000,Start of Day 2,SLS,90,A,Pass,End of Day 1,Pass,NaN,NaN,NaN,Pass,NaN,Pass,NaN,Start of Day 2,NaN,schedule_B,schedule_B,31,15,5,feedback_r,Zone7,timelimit_screen,2000.038,NaN,NaN,,NaN,0,1,0,NaN,NaN,1,NaN,NaN,trial_left,blueBox.png,greenBox.png,blueBox.png,al2_uncon.png,61,30,NaN,NaN,0.85,0.15,1,0,0,0,Stable,Stable,2.79,1.735,0.601,2.345,inexpert
153,1673456879615,11/01/2023 17:07:59,1673456879645,0,11/01/2023 17:07:59,111483,5,task-qrxs,repeat-7g8d#1->-repeat-38fk#1->-repeat-qjz7#1->-repeat-5t6i#1,26327174,BLIND,7766400,NaN,complete,NaN,63bdb71b374a15fbe31fe02d,computer,Desktop or Laptop,Windows 10,Chrome 108.0.0.0,1500x1000,1500x1000,Start of Day 2,SLS,90,A,Pass,End of Day 1,Pass,NaN,NaN,NaN,Pass,NaN,Pass,NaN,Start of Day 2,NaN,schedule_B,schedule_B,31,15,6,end,Zone1,timelimit_screen,149.902000000002,NaN,NaN,,NaN,0,1,0,NaN,NaN,1,NaN,NaN,trial_left,blueBox.png,greenBox.png,blueBox.png,al2_uncon.png,61,30,NaN,NaN,0.85,0.15,1,0,0,0,Stable,Stable,2.79,1.735,0.601,2.345,inexpert
