EventIndex,UTCTimestamp,UTCDate,LocalTimestamp,LocalTimezone,LocalDate,ExperimentID,ExperimentVersion,TreeNodeKey,RepeatKey,ScheduleID,ParticipantPublicID,ParticipantPrivateID,ParticipantStartingGroup,ParticipantStatus,ParticipantCompletionCode,ParticipantExternalSessionID,ParticipantDeviceType,ParticipantDevice,ParticipantOS,ParticipantBrowser,ParticipantMonitorSize,ParticipantViewportSize,Checkpoint,TaskName,TaskVersion,randomiser_6z9f,branch_kxy7,checkpoint_tqwf,branch_rtog,branch_7dgx,checkpoint_mqen,branch_yx2c,branch_3n8o,branch_f1s6,branch_x6l7,branch_21hs,checkpoint_iz27,checkpoint_sry6,Spreadsheet,SpreadsheetName,SpreadsheetRow,TrialNumber,ScreenNumber,ScreenName,ZoneName,ZoneType,ReactionTime,ReactionOnset,ResponseType,Response,Attempt,Correct,Incorrect,Dishonest,XCoordinate,YCoordinate,TimedOut,randomise_blocks,randomise_trials,display,ANSWER,left_button,right_button,advice,orderno,trialno,ShowProgressBar,image,prob_blue_corr,prob_group_corr,corr_ans,group_corr,group_choice,blue_pos,indiv_vol,soc_vol,ITI_1,ITI_2,ITI_3,ITI_4,condition
1,1673464100709,11/01/2023 19:08:20,1673464100664,0,11/01/2023 19:08:20,111483,6,task-v1fs,repeat-u7ds#1->-repeat-l3h2#1->-repeat-pi7a#1->-repeat-apgu#1,26330620,BLIND,7766470,NaN,complete,NaN,63bdb974d4e9ba2e6133b400,computer,Desktop or Laptop,Mac OS 10.15.7,Safari 15.6.1,1920x1080,1679x1017,Start of Day 2,SLS,90,B,NaN,NaN,NaN,Pass,End of Day 1,Pass,NaN,Pass,NaN,Pass,NaN,Start of Day 2,schedule_A,,NaN,NaN,NaN,,,,NaN,NaN,NaN,,NaN,0,1,0,NaN,NaN,NaN,NaN,NaN,,,,,,NaN,NaN,NaN,NaN,NaN,NaN,NaN,NaN,NaN,NaN,,,NaN,NaN,NaN,NaN,
2,1673464102789,11/01/2023 19:08:22,1673464102781,0,11/01/2023 19:08:22,111483,6,task-v1fs,repeat-u7ds#1->-repeat-l3h2#1->-repeat-pi7a#1->-repeat-apgu#1,26330620,BLIND,7766470,NaN,complete,NaN,63bdb974d4e9ba2e6133b400,computer,Desktop or Laptop,Mac OS 10.15.7,Safari 15.6.1,1920x1080,1679x1017,Start of Day 2,SLS,90,B,NaN,NaN,NaN,Pass,End of Day 1,Pass,NaN,Pass,NaN,Pass,NaN,Start of Day 2,schedule_A,schedule_A,1,1,1,Screen 1,Zone1,continue_button,1840,NaN,NaN,,NaN,0,1,0,NaN,NaN,NaN,NaN,NaN,getReady,,,,,1,NaN,NaN,NaN,NaN,NaN,NaN,NaN,NaN,NaN,,,NaN,NaN,NaN,NaN,
3,1673464104613,11/01/2023 19:08:24,1673464104591,0,11/01/2023 19:08:24,111483,6,task-v1fs,repeat-u7ds#1->-repeat-l3h2#1->-repeat-pi7a#1->-repeat-apgu#1,26330620,BLIND,7766470,NaN,complete,NaN,63bdb974d4e9ba2e6133b400,computer,Desktop or Laptop,Mac OS 10.15.7,Safari 15.6.1,1920x1080,1679x1017,Start of Day 2,SLS,90,B,NaN,NaN,NaN,Pass,End of Day 1,Pass,NaN,Pass,NaN,Pass,NaN,Start of Day 2,schedule_A,schedule_A,1,1,2,Screen 2,Zone1,continue_button,1805,NaN,NaN,,NaN,0,1,0,NaN,NaN,NaN,NaN,NaN,getReady,,,,,1,NaN,NaN,NaN,NaN,NaN,NaN,NaN,NaN,NaN,,,NaN,NaN,NaN,NaN,
4,1673464108253,11/01/2023 19:08:28,1673464108225,0,11/01/2023 19:08:28,111483,6,task-v1fs,repeat-u7ds#1->-repeat-l3h2#1->-repeat-pi7a#1->-repeat-apgu#1,26330620,BLIND,7766470,NaN,complete,NaN,63bdb974d4e9ba2e6133b400,computer,Desktop or Laptop,Mac OS 10.15.7,Safari 15.6.1,1920x1080,1679x1017,Start of Day 2,SLS,90,B,NaN,NaN,NaN,Pass,End of Day 1,Pass,NaN,Pass,NaN,Pass,NaN,Start of Day 2,schedule_A,schedule_A,2,1,1,Screen 1,Zone1,continue_button,3616,NaN,NaN,,NaN,0,1,0,NaN,NaN,NaN,NaN,NaN,trial_right,redBox.png,yellowBox.png,redBox.png,al1_con.png,2,1,NaN,NaN,0.85,0.85,1,1,1,0,Volatile,Stable,3.471,0.525,1.66,2.529,expert
5,1673464109234,11/01/2023 19:08:29,1673464109222,0,11/01/2023 19:08:29,111483,6,task-v1fs,repeat-u7ds#1->-repeat-l3h2#1->-repeat-pi7a#1->-repeat-apgu#1,26330620,BLIND,7766470,NaN,complete,NaN,63bdb974d4e9ba2e6133b400,computer,Desktop or Laptop,Mac OS 10.15.7,Safari 15.6.1,1920x1080,1679x1017,Start of Day 2,SLS,90,B,NaN,NaN,NaN,Pass,End of Day 1,Pass,NaN,Pass,NaN,Pass,NaN,Start of Day 2,schedule_A,schedule_A,2,1,2,individual,Zone4,timelimit_screen,1001,NaN,NaN,,NaN,0,1,0,NaN,NaN,1,NaN,NaN,trial_right,redBox.png,yellowBox.png,redBox.png,al1_con.png,2,1,NaN,NaN,0.85,0.85,1,1,1,0,Volatile,Stable,3.471,0.525,1.66,2.529,expert
6,1673464110294,11/01/2023 19:08:30,1673464110283,0,11/01/2023 19:08:30,111483,6,task-v1fs,repeat-u7ds#1->-repeat-l3h2#1->-repeat-pi7a#1->-repeat-apgu#1,26330620,BLIND,7766470,NaN,complete,NaN,63bdb974d4e9ba2e6133b400,computer,Desktop or Laptop,Mac OS 10.15.7,Safari 15.6.1,1920x1080,1679x1017,Start of Day 2,SLS,90,B,NaN,NaN,NaN,Pass,End of Day 1,Pass,NaN,Pass,NaN,Pass,NaN,Start of Day 2,schedule_A,schedule_A,2,1,3,offer,Zone3,response_button_image,1050,NaN,NaN,redBox.png,1,1,0,0,NaN,NaN,NaN,NaN,NaN,trial_right,redBox.png,yellowBox.png,redBox.png,al1_con.png,2,1,NaN,NaN,0.85,0.85,1,1,1,0,Volatile,Stable,3.471,0.525,1.66,2.529,expert
7,1673464112286,11/01/2023 19:08:32,1673464112275,0,11/01/2023 19:08:32,111483,6,task-v1fs,repeat-u7ds#1->-repeat-l3h2#1->-repeat-pi7a#1->-repeat-apgu#1,26330620,BLIND,7766470,NaN,complete,NaN,63bdb974d4e9ba2e6133b400,computer,Desktop or Laptop,Mac OS 10.15.7,Safari 15.6.1,1920x1080,1679x1017,Start of Day 2,SLS,90,B,NaN,NaN,NaN,Pass,End of Day 1,Pass,NaN,Pass,NaN,Pass,NaN,Start of Day 2,schedule_A,schedule_A,2,1,5,feedback_r,Zone7,timelimit_screen,2002,NaN,NaN,,NaN,0,1,0,NaN,NaN,1,NaN,NaN,trial_right,redBox.png,yellowBox.png,redBox.png,al1_con.png,2,1,NaN,NaN,0.85,0.85,1,1,1,0,Volatile,Stable,3.471,0.525,1.66,2.529,expert
8,1673464112448,11/01/2023 19:08:32,1673464112425,0,11/01/2023 19:08:32,111483,6,task-v1fs,repeat-u7ds#1->-repeat-l3h2#1->-repeat-pi7a#1->-repeat-apgu#1,26330620,BLIND,7766470,NaN,complete,NaN,63bdb974d4e9ba2e6133b400,computer,Desktop or Laptop,Mac OS 10.15.7,Safari 15.6.1,1920x1080,1679x1017,Start of Day 2,SLS,90,B,NaN,NaN,NaN,Pass,End of Day 1,Pass,NaN,Pass,NaN,Pass,NaN,Start of Day 2,schedule_A,schedule_A,2,1,6,end,Zone1,timelimit_screen,150,NaN,NaN,,NaN,0,1,0,NaN,NaN,1,NaN,NaN,trial_right,redBox.png,yellowBox.png,redBox.png,al1_con.png,2,1,NaN,NaN,0.85,0.85,1,1,1,0,Volatile,Stable,3.471,0.525,1.66,2.529,expert
9,1673464112996,11/01/2023 19:08:32,1673464112983,0,11/01/2023 19:08:32,111483,6,task-v1fs,repeat-u7ds#1->-repeat-l3h2#1->-repeat-pi7a#1->-repeat-apgu#1,26330620,BLIND,7766470,NaN,complete,NaN,63bdb974d4e9ba2e6133b400,computer,Desktop or Laptop,Mac OS 10.15.7,Safari 15.6.1,1920x1080,1679x1017,Start of Day 2,SLS,90,B,NaN,NaN,NaN,Pass,End of Day 1,Pass,NaN,Pass,NaN,Pass,NaN,Start of Day 2,schedule_A,schedule_A,3,1,1,Screen 1,Zone1,continue_button,543,NaN,NaN,,NaN,0,1,0,NaN,NaN,NaN,NaN,NaN,trial_left,redBox.png,redBox.png,yellowBox.png,al1_con.png,3,2,NaN,NaN,0.85,0.85,1,1,1,1,Volatile,Stable,1.782,1.168,1.168,2.462,expert
10,1673464113990,11/01/2023 19:08:33,1673464113977,0,11/01/2023 19:08:33,111483,6,task-v1fs,repeat-u7ds#1->-repeat-l3h2#1->-repeat-pi7a#1->-repeat-apgu#1,26330620,BLIND,7766470,NaN,complete,NaN,63bdb974d4e9ba2e6133b400,computer,Desktop or Laptop,Mac OS 10.15.7,Safari 15.6.1,1920x1080,1679x1017,Start of Day 2,SLS,90,B,NaN,NaN,NaN,Pass,End of Day 1,Pass,NaN,Pass,NaN,Pass,NaN,Start of Day 2,schedule_A,schedule_A,3,1,2,individual,Zone4,timelimit_screen,1001,NaN,NaN,,NaN,0,1,0,NaN,NaN,1,NaN,NaN,trial_left,redBox.png,redBox.png,yellowBox.png,al1_con.png,3,2,NaN,NaN,0.85,0.85,1,1,1,1,Volatile,Stable,1.782,1.168,1.168,2.462,expert
11,1673464114824,11/01/2023 19:08:34,1673464114806,0,11/01/2023 19:08:34,111483,6,task-v1fs,repeat-u7ds#1->-repeat-l3h2#1->-repeat-pi7a#1->-repeat-apgu#1,26330620,BLIND,7766470,NaN,complete,NaN,63bdb974d4e9ba2e6133b400,computer,Desktop or Laptop,Mac OS 10.15.7,Safari 15.6.1,1920x1080,1679x1017,Start of Day 2,SLS,90,B,NaN,NaN,NaN,Pass,End of Day 1,Pass,NaN,Pass,NaN,Pass,NaN,Start of Day 2,schedule_A,schedule_A,3,1,3,offer,Zone2,response_button_image,820,NaN,NaN,redBox.png,1,1,0,0,NaN,NaN,NaN,NaN,NaN,trial_left,redBox.png,redBox.png,yellowBox.png,al1_con.png,3,2,NaN,NaN,0.85,0.85,1,1,1,1,Volatile,Stable,1.782,1.168,1.168,2.462,expert
12,1673464116821,11/01/2023 19:08:36,1673464116795,0,11/01/2023 19:08:36,111483,6,task-v1fs,repeat-u7ds#1->-repeat-l3h2#1->-repeat-pi7a#1->-repeat-apgu#1,26330620,BLIND,7766470,NaN,complete,NaN,63bdb974d4e9ba2e6133b400,computer,Desktop or Laptop,Mac OS 10.15.7,Safari 15.6.1,1920x1080,1679x1017,Start of Day 2,SLS,90,B,NaN,NaN,NaN,Pass,End of Day 1,Pass,NaN,Pass,NaN,Pass,NaN,Start of Day 2,schedule_A,schedule_A,3,1,4,feedback_l,Zone7,timelimit_screen,2002,NaN,NaN,,NaN,0,1,0,NaN,NaN,1,NaN,NaN,trial_left,redBox.png,redBox.png,yellowBox.png,al1_con.png,3,2,NaN,NaN,0.85,0.85,1,1,1,1,Volatile,Stable,1.782,1.168,1.168,2.462,expert
13,1673464116957,11/01/2023 19:08:36,1673464116946,0,11/01/2023 19:08:36,111483,6,task-v1fs,repeat-u7ds#1->-repeat-l3h2#1->-repeat-pi7a#1->-repeat-apgu#1,26330620,BLIND,7766470,NaN,complete,NaN,63bdb974d4e9ba2e6133b400,computer,Desktop or Laptop,Mac OS 10.15.7,Safari 15.6.1,1920x1080,1679x1017,Start of Day 2,SLS,90,B,NaN,NaN,NaN,Pass,End of Day 1,Pass,NaN,Pass,NaN,Pass,NaN,Start of Day 2,schedule_A,schedule_A,3,1,6,end,Zone1,timelimit_screen,151,NaN,NaN,,NaN,0,1,0,NaN,NaN,1,NaN,NaN,trial_left,redBox.png,redBox.png,yellowBox.png,al1_con.png,3,2,NaN,NaN,0.85,0.85,1,1,1,1,Volatile,Stable,1.782,1.168,1.168,2.462,expert
14,1673464118153,11/01/2023 19:08:38,1673464118135,0,11/01/2023 19:08:38,111483,6,task-v1fs,repeat-u7ds#1->-repeat-l3h2#1->-repeat-pi7a#1->-repeat-apgu#1,26330620,BLIND,7766470,NaN,complete,NaN,63bdb974d4e9ba2e6133b400,computer,Desktop or Laptop,Mac OS 10.15.7,Safari 15.6.1,1920x1080,1679x1017,Start of Day 2,SLS,90,B,NaN,NaN,NaN,Pass,End of Day 1,Pass,NaN,Pass,NaN,Pass,NaN,Start of Day 2,schedule_A,schedule_A,4,2,1,Screen 1,Zone1,continue_button,1173,NaN,NaN,,NaN,0,1,0,NaN,NaN,NaN,NaN,NaN,trial_right,redBox.png,yellowBox.png,redBox.png,al1_con.png,4,3,NaN,NaN,0.85,0.85,1,1,1,0,Volatile,Stable,1.983,1.181,0.538,1.588,expert
15,1673464119158,11/01/2023 19:08:39,1673464119132,0,11/01/2023 19:08:39,111483,6,task-v1fs,repeat-u7ds#1->-repeat-l3h2#1->-repeat-pi7a#1->-repeat-apgu#1,26330620,BLIND,7766470,NaN,complete,NaN,63bdb974d4e9ba2e6133b400,computer,Desktop or Laptop,Mac OS 10.15.7,Safari 15.6.1,1920x1080,1679x1017,Start of Day 2,SLS,90,B,NaN,NaN,NaN,Pass,End of Day 1,Pass,NaN,Pass,NaN,Pass,NaN,Start of Day 2,schedule_A,schedule_A,4,2,2,individual,Zone4,timelimit_screen,1001,NaN,NaN,,NaN,0,1,0,NaN,NaN,1,NaN,NaN,trial_right,redBox.png,yellowBox.png,redBox.png,al1_con.png,4,3,NaN,NaN,0.85,0.85,1,1,1,0,Volatile,Stable,1.983,1.181,0.538,1.588,expert
16,1673464119949,11/01/2023 19:08:39,1673464119935,0,11/01/2023 19:08:39,111483,6,task-v1fs,repeat-u7ds#1->-repeat-l3h2#1->-repeat-pi7a#1->-repeat-apgu#1,26330620,BLIND,7766470,NaN,complete,NaN,63bdb974d4e9ba2e6133b400,computer,Desktop or Laptop,Mac OS 10.15.7,Safari 15.6.1,1920x1080,1679x1017,Start of Day 2,SLS,90,B,NaN,NaN,NaN,Pass,End of Day 1,Pass,NaN,Pass,NaN,Pass,NaN,Start of Day 2,schedule_A,schedule_A,4,2,3,offer,Zone3,response_button_image,794,NaN,NaN,redBox.png,1,1,0,0,NaN,NaN,NaN,NaN,NaN,trial_right,redBox.png,yellowBox.png,redBox.png,al1_con.png,4,3,NaN,NaN,0.85,0.85,1,1,1,0,Volatile,Stable,1.983,1.181,0.538,1.588,expert
17,1673464121951,11/01/2023 19:08:41,1673464121934,0,11/01/2023 19:08:41,111483,6,task-v1fs,repeat-u7ds#1->-repeat-l3h2#1->-repeat-pi7a#1->-repeat-apgu#1,26330620,BLIND,7766470,NaN,complete,NaN,63bdb974d4e9ba2e6133b400,computer,Desktop or Laptop,Mac OS 10.15.7,Safari 15.6.1,1920x1080,1679x1017,Start of Day 2,SLS,90,B,NaN,NaN,NaN,Pass,End of Day 1,Pass,NaN,Pass,NaN,Pass,NaN,Start of Day 2,schedule_A,schedule_A,4,2,5,feedback_r,Zone7,timelimit_screen,2001,NaN,NaN,,NaN,0,1,0,NaN,NaN,1,NaN,NaN,trial_right,redBox.png,yellowBox.png,redBox.png,al1_con.png,4,3,NaN,NaN,0.85,0.85,1,1,1,0,Volatile,Stable,1.983,1.181,0.538,1.588,expert
18,1673464122110,11/01/2023 19:08:42,1673464122085,0,11/01/2023 19:08:42,111483,6,task-v1fs,repeat-u7ds#1->-repeat-l3h2#1->-repeat-pi7a#1->-repeat-apgu#1,26330620,BLIND,7766470,NaN,complete,NaN,63bdb974d4e9ba2e6133b400,computer,Desktop or Laptop,Mac OS 10.15.7,Safari 15.6.1,1920x1080,1679x1017,Start of Day 2,SLS,90,B,NaN,NaN,NaN,Pass,End of Day 1,Pass,NaN,Pass,NaN,Pass,NaN,Start of Day 2,schedule_A,schedule_A,4,2,6,end,Zone1,timelimit_screen,151,NaN,NaN,,NaN,0,1,0,NaN,NaN,1,NaN,NaN,trial_right,redBox.png,yellowBox.png,redBox.png,al1_con.png,4,3,NaN,NaN,0.85,0.85,1,1,1,0,Volatile,Stable,1.983,1.181,0.538,1.588,expert
19,1673464123070,11/01/2023 19:08:43,1673464123051,0,11/01/2023 19:08:43,111483,6,task-v1fs,repeat-u7ds#1->-repeat-l3h2#1->-repeat-pi7a#1->-repeat-apgu#1,26330620,BLIND,7766470,NaN,complete,NaN,63bdb974d4e9ba2e6133b400,computer,Desktop or Laptop,Mac OS 10.15.7,Safari 15.6.1,1920x1080,1679x1017,Start of Day 2,SLS,90,B,NaN,NaN,NaN,Pass,End of Day 1,Pass,NaN,Pass,NaN,Pass,NaN,Start of Day 2,schedule_A,schedule_A,5,3,1,Screen 1,Zone1,continue_button,953,NaN,NaN,,NaN,0,1,0,NaN,NaN,NaN,NaN,NaN,trial_right,redBox.png,yellowBox.png,redBox.png,al1_con.png,5,4,NaN,NaN,0.85,0.85,1,1,1,0,Volatile,Stable,1.529,0.891,1.004,1,expert
20,1673464124053,11/01/2023 19:08:44,1673464124037,0,11/01/2023 19:08:44,111483,6,task-v1fs,repeat-u7ds#1->-repeat-l3h2#1->-repeat-pi7a#1->-repeat-apgu#1,26330620,BLIND,7766470,NaN,complete,NaN,63bdb974d4e9ba2e6133b400,computer,Desktop or Laptop,Mac OS 10.15.7,Safari 15.6.1,1920x1080,1679x1017,Start of Day 2,SLS,90,B,NaN,NaN,NaN,Pass,End of Day 1,Pass,NaN,Pass,NaN,Pass,NaN,Start of Day 2,schedule_A,schedule_A,5,3,2,individual,Zone4,timelimit_screen,1002,NaN,NaN,,NaN,0,1,0,NaN,NaN,1,NaN,NaN,trial_right,redBox.png,yellowBox.png,redBox.png,al1_con.png,5,4,NaN,NaN,0.85,0.85,1,1,1,0,Volatile,Stable,1.529,0.891,1.004,1,expert
21,1673464124918,11/01/2023 19:08:44,1673464124908,0,11/01/2023 19:08:44,111483,6,task-v1fs,repeat-u7ds#1->-repeat-l3h2#1->-repeat-pi7a#1->-repeat-apgu#1,26330620,BLIND,7766470,NaN,complete,NaN,63bdb974d4e9ba2e6133b400,computer,Desktop or Laptop,Mac OS 10.15.7,Safari 15.6.1,1920x1080,1679x1017,Start of Day 2,SLS,90,B,NaN,NaN,NaN,Pass,End of Day 1,Pass,NaN,Pass,NaN,Pass,NaN,Start of Day 2,schedule_A,schedule_A,5,3,3,offer,Zone3,response_button_image,861,NaN,NaN,redBox.png,1,1,0,0,NaN,NaN,NaN,NaN,NaN,trial_right,redBox.png,yellowBox.png,redBox.png,al1_con.png,5,4,NaN,NaN,0.85,0.85,1,1,1,0,Volatile,Stable,1.529,0.891,1.004,1,expert
22,1673464126919,11/01/2023 19:08:46,1673464126906,0,11/01/2023 19:08:46,111483,6,task-v1fs,repeat-u7ds#1->-repeat-l3h2#1->-repeat-pi7a#1->-repeat-apgu#1,26330620,BLIND,7766470,NaN,complete,NaN,63bdb974d4e9ba2e6133b400,computer,Desktop or Laptop,Mac OS 10.15.7,Safari 15.6.1,1920x1080,1679x1017,Start of Day 2,SLS,90,B,NaN,NaN,NaN,Pass,End of Day 1,Pass,NaN,Pass,NaN,Pass,NaN,Start of Day 2,schedule_A,schedule_A,5,3,5,feedback_r,Zone7,timelimit_screen,2002,NaN,NaN,,NaN,0,1,0,NaN,NaN,1,NaN,NaN,trial_right,redBox.png,yellowBox.png,redBox.png,al1_con.png,5,4,NaN,NaN,0.85,0.85,1,1,1,0,Volatile,Stable,1.529,0.891,1.004,1,expert
23,1673464127069,11/01/2023 19:08:47,1673464127056,0,11/01/2023 19:08:47,111483,6,task-v1fs,repeat-u7ds#1->-repeat-l3h2#1->-repeat-pi7a#1->-repeat-apgu#1,26330620,BLIND,7766470,NaN,complete,NaN,63bdb974d4e9ba2e6133b400,computer,Desktop or Laptop,Mac OS 10.15.7,Safari 15.6.1,1920x1080,1679x1017,Start of Day 2,SLS,90,B,NaN,NaN,NaN,Pass,End of Day 1,Pass,NaN,Pass,NaN,Pass,NaN,Start of Day 2,schedule_A,schedule_A,5,3,6,end,Zone1,timelimit_screen,150,NaN,NaN,,NaN,0,1,0,NaN,NaN,1,NaN,NaN,trial_right,redBox.png,yellowBox.png,redBox.png,al1_con.png,5,4,NaN,NaN,0.85,0.85,1,1,1,0,Volatile,Stable,1.529,0.891,1.004,1,expert
24,1673464127990,11/01/2023 19:08:47,1673464127978,0,11/01/2023 19:08:47,111483,6,task-v1fs,repeat-u7ds#1->-repeat-l3h2#1->-repeat-pi7a#1->-repeat-apgu#1,26330620,BLIND,7766470,NaN,complete,NaN,63bdb974d4e9ba2e6133b400,computer,Desktop or Laptop,Mac OS 10.15.7,Safari 15.6.1,1920x1080,1679x1017,Start of Day 2,SLS,90,B,NaN,NaN,NaN,Pass,End of Day 1,Pass,NaN,Pass,NaN,Pass,NaN,Start of Day 2,schedule_A,schedule_A,6,2,1,Screen 1,Zone1,continue_button,907,NaN,NaN,,NaN,0,1,0,NaN,NaN,NaN,NaN,NaN,trial_left,redBox.png,redBox.png,yellowBox.png,al1_con.png,6,5,NaN,NaN,0.85,0.85,1,1,1,1,Volatile,Stable,1.832,1.118,0.752,1.79,expert
25,1673464128985,11/01/2023 19:08:48,1673464128975,0,11/01/2023 19:08:48,111483,6,task-v1fs,repeat-u7ds#1->-repeat-l3h2#1->-repeat-pi7a#1->-repeat-apgu#1,26330620,BLIND,7766470,NaN,complete,NaN,63bdb974d4e9ba2e6133b400,computer,Desktop or Laptop,Mac OS 10.15.7,Safari 15.6.1,1920x1080,1679x1017,Start of Day 2,SLS,90,B,NaN,NaN,NaN,Pass,End of Day 1,Pass,NaN,Pass,NaN,Pass,NaN,Start of Day 2,schedule_A,schedule_A,6,2,2,individual,Zone4,timelimit_screen,1001,NaN,NaN,,NaN,0,1,0,NaN,NaN,1,NaN,NaN,trial_left,redBox.png,redBox.png,yellowBox.png,al1_con.png,6,5,NaN,NaN,0.85,0.85,1,1,1,1,Volatile,Stable,1.832,1.118,0.752,1.79,expert
26,1673464129746,11/01/2023 19:08:49,1673464129734,0,11/01/2023 19:08:49,111483,6,task-v1fs,repeat-u7ds#1->-repeat-l3h2#1->-repeat-pi7a#1->-repeat-apgu#1,26330620,BLIND,7766470,NaN,complete,NaN,63bdb974d4e9ba2e6133b400,computer,Desktop or Laptop,Mac OS 10.15.7,Safari 15.6.1,1920x1080,1679x1017,Start of Day 2,SLS,90,B,NaN,NaN,NaN,Pass,End of Day 1,Pass,NaN,Pass,NaN,Pass,NaN,Start of Day 2,schedule_A,schedule_A,6,2,3,offer,Zone2,response_button_image,748.000000000004,NaN,NaN,redBox.png,1,1,0,0,NaN,NaN,NaN,NaN,NaN,trial_left,redBox.png,redBox.png,yellowBox.png,al1_con.png,6,5,NaN,NaN,0.85,0.85,1,1,1,1,Volatile,Stable,1.832,1.118,0.752,1.79,expert
27,1673464131744,11/01/2023 19:08:51,1673464131728,0,11/01/2023 19:08:51,111483,6,task-v1fs,repeat-u7ds#1->-repeat-l3h2#1->-repeat-pi7a#1->-repeat-apgu#1,26330620,BLIND,7766470,NaN,complete,NaN,63bdb974d4e9ba2e6133b400,computer,Desktop or Laptop,Mac OS 10.15.7,Safari 15.6.1,1920x1080,1679x1017,Start of Day 2,SLS,90,B,NaN,NaN,NaN,Pass,End of Day 1,Pass,NaN,Pass,NaN,Pass,NaN,Start of Day 2,schedule_A,schedule_A,6,2,4,feedback_l,Zone7,timelimit_screen,2002,NaN,NaN,,NaN,0,1,0,NaN,NaN,1,NaN,NaN,trial_left,redBox.png,redBox.png,yellowBox.png,al1_con.png,6,5,NaN,NaN,0.85,0.85,1,1,1,1,Volatile,Stable,1.832,1.118,0.752,1.79,expert
28,1673464131947,11/01/2023 19:08:51,1673464131878,0,11/01/2023 19:08:51,111483,6,task-v1fs,repeat-u7ds#1->-repeat-l3h2#1->-repeat-pi7a#1->-repeat-apgu#1,26330620,BLIND,7766470,NaN,complete,NaN,63bdb974d4e9ba2e6133b400,computer,Desktop or Laptop,Mac OS 10.15.7,Safari 15.6.1,1920x1080,1679x1017,Start of Day 2,SLS,90,B,NaN,NaN,NaN,Pass,End of Day 1,Pass,NaN,Pass,NaN,Pass,NaN,Start of Day 2,schedule_A,schedule_A,6,2,6,end,Zone1,timelimit_screen,150,NaN,NaN,,NaN,0,1,0,NaN,NaN,1,NaN,NaN,trial_left,redBox.png,redBox.png,yellowBox.png,al1_con.png,6,5,NaN,NaN,0.85,0.85,1,1,1,1,Volatile,Stable,1.832,1.118,0.752,1.79,expert
29,1673464132828,11/01/2023 19:08:52,1673464132816,0,11/01/2023 19:08:52,111483,6,task-v1fs,repeat-u7ds#1->-repeat-l3h2#1->-repeat-pi7a#1->-repeat-apgu#1,26330620,BLIND,7766470,NaN,complete,NaN,63bdb974d4e9ba2e6133b400,computer,Desktop or Laptop,Mac OS 10.15.7,Safari 15.6.1,1920x1080,1679x1017,Start of Day 2,SLS,90,B,NaN,NaN,NaN,Pass,End of Day 1,Pass,NaN,Pass,NaN,Pass,NaN,Start of Day 2,schedule_A,schedule_A,7,4,1,Screen 1,Zone1,continue_button,920,NaN,NaN,,NaN,0,1,0,NaN,NaN,NaN,NaN,NaN,trial_right,yellowBox.png,redBox.png,yellowBox.png,al1_con.png,7,6,NaN,NaN,0.15,0.85,0,1,0,1,Volatile,Stable,3.294,0.815,1.282,2.664,expert
30,1673464133823,11/01/2023 19:08:53,1673464133814,0,11/01/2023 19:08:53,111483,6,task-v1fs,repeat-u7ds#1->-repeat-l3h2#1->-repeat-pi7a#1->-repeat-apgu#1,26330620,BLIND,7766470,NaN,complete,NaN,63bdb974d4e9ba2e6133b400,computer,Desktop or Laptop,Mac OS 10.15.7,Safari 15.6.1,1920x1080,1679x1017,Start of Day 2,SLS,90,B,NaN,NaN,NaN,Pass,End of Day 1,Pass,NaN,Pass,NaN,Pass,NaN,Start of Day 2,schedule_A,schedule_A,7,4,2,individual,Zone4,timelimit_screen,1001,NaN,NaN,,NaN,0,1,0,NaN,NaN,1,NaN,NaN,trial_right,yellowBox.png,redBox.png,yellowBox.png,al1_con.png,7,6,NaN,NaN,0.15,0.85,0,1,0,1,Volatile,Stable,3.294,0.815,1.282,2.664,expert
31,1673464134593,11/01/2023 19:08:54,1673464134582,0,11/01/2023 19:08:54,111483,6,task-v1fs,repeat-u7ds#1->-repeat-l3h2#1->-repeat-pi7a#1->-repeat-apgu#1,26330620,BLIND,7766470,NaN,complete,NaN,63bdb974d4e9ba2e6133b400,computer,Desktop or Laptop,Mac OS 10.15.7,Safari 15.6.1,1920x1080,1679x1017,Start of Day 2,SLS,90,B,NaN,NaN,NaN,Pass,End of Day 1,Pass,NaN,Pass,NaN,Pass,NaN,Start of Day 2,schedule_A,schedule_A,7,4,3,offer,Zone3,response_button_image,761,NaN,NaN,yellowBox.png,1,1,0,0,NaN,NaN,NaN,NaN,NaN,trial_right,yellowBox.png,redBox.png,yellowBox.png,al1_con.png,7,6,NaN,NaN,0.15,0.85,0,1,0,1,Volatile,Stable,3.294,0.815,1.282,2.664,expert
32,1673464136604,11/01/2023 19:08:56,1673464136583,0,11/01/2023 19:08:56,111483,6,task-v1fs,repeat-u7ds#1->-repeat-l3h2#1->-repeat-pi7a#1->-repeat-apgu#1,26330620,BLIND,7766470,NaN,complete,NaN,63bdb974d4e9ba2e6133b400,computer,Desktop or Laptop,Mac OS 10.15.7,Safari 15.6.1,1920x1080,1679x1017,Start of Day 2,SLS,90,B,NaN,NaN,NaN,Pass,End of Day 1,Pass,NaN,Pass,NaN,Pass,NaN,Start of Day 2,schedule_A,schedule_A,7,4,5,feedback_r,Zone7,timelimit_screen,2002,NaN,NaN,,NaN,0,1,0,NaN,NaN,1,NaN,NaN,trial_right,yellowBox.png,redBox.png,yellowBox.png,al1_con.png,7,6,NaN,NaN,0.15,0.85,0,1,0,1,Volatile,Stable,3.294,0.815,1.282,2.664,expert
33,1673464136752,11/01/2023 19:08:56,1673464136733,0,11/01/2023 19:08:56,111483,6,task-v1fs,repeat-u7ds#1->-repeat-l3h2#1->-repeat-pi7a#1->-repeat-apgu#1,26330620,BLIND,7766470,NaN,complete,NaN,63bdb974d4e9ba2e6133b400,computer,Desktop or Laptop,Mac OS 10.15.7,Safari 15.6.1,1920x1080,1679x1017,Start of Day 2,SLS,90,B,NaN,NaN,NaN,Pass,End of Day 1,Pass,NaN,Pass,NaN,Pass,NaN,Start of Day 2,schedule_A,schedule_A,7,4,6,end,Zone1,timelimit_screen,151,NaN,NaN,,NaN,0,1,0,NaN,NaN,1,NaN,NaN,trial_right,yellowBox.png,redBox.png,yellowBox.png,al1_con.png,7,6,NaN,NaN,0.15,0.85,0,1,0,1,Volatile,Stable,3.294,0.815,1.282,2.664,expert
34,1673464137690,11/01/2023 19:08:57,1673464137676,0,11/01/2023 19:08:57,111483,6,task-v1fs,repeat-u7ds#1->-repeat-l3h2#1->-repeat-pi7a#1->-repeat-apgu#1,26330620,BLIND,7766470,NaN,complete,NaN,63bdb974d4e9ba2e6133b400,computer,Desktop or Laptop,Mac OS 10.15.7,Safari 15.6.1,1920x1080,1679x1017,Start of Day 2,SLS,90,B,NaN,NaN,NaN,Pass,End of Day 1,Pass,NaN,Pass,NaN,Pass,NaN,Start of Day 2,schedule_A,schedule_A,8,3,1,Screen 1,Zone1,continue_button,928,NaN,NaN,,NaN,0,1,0,NaN,NaN,NaN,NaN,NaN,trial_left,yellowBox.png,yellowBox.png,redBox.png,al1_con.png,8,7,NaN,NaN,0.15,0.85,0,1,0,0,Volatile,Stable,3.269,1.37,1.786,2.328,expert
35,1673464138685,11/01/2023 19:08:58,1673464138669,0,11/01/2023 19:08:58,111483,6,task-v1fs,repeat-u7ds#1->-repeat-l3h2#1->-repeat-pi7a#1->-repeat-apgu#1,26330620,BLIND,7766470,NaN,complete,NaN,63bdb974d4e9ba2e6133b400,computer,Desktop or Laptop,Mac OS 10.15.7,Safari 15.6.1,1920x1080,1679x1017,Start of Day 2,SLS,90,B,NaN,NaN,NaN,Pass,End of Day 1,Pass,NaN,Pass,NaN,Pass,NaN,Start of Day 2,schedule_A,schedule_A,8,3,2,individual,Zone4,timelimit_screen,1001,NaN,NaN,,NaN,0,1,0,NaN,NaN,1,NaN,NaN,trial_left,yellowBox.png,yellowBox.png,redBox.png,al1_con.png,8,7,NaN,NaN,0.15,0.85,0,1,0,0,Volatile,Stable,3.269,1.37,1.786,2.328,expert
36,1673464139863,11/01/2023 19:08:59,1673464139847,0,11/01/2023 19:08:59,111483,6,task-v1fs,repeat-u7ds#1->-repeat-l3h2#1->-repeat-pi7a#1->-repeat-apgu#1,26330620,BLIND,7766470,NaN,complete,NaN,63bdb974d4e9ba2e6133b400,computer,Desktop or Laptop,Mac OS 10.15.7,Safari 15.6.1,1920x1080,1679x1017,Start of Day 2,SLS,90,B,NaN,NaN,NaN,Pass,End of Day 1,Pass,NaN,Pass,NaN,Pass,NaN,Start of Day 2,schedule_A,schedule_A,8,3,3,offer,Zone2,response_button_image,1170,NaN,NaN,yellowBox.png,1,1,0,0,NaN,NaN,NaN,NaN,NaN,trial_left,yellowBox.png,yellowBox.png,redBox.png,al1_con.png,8,7,NaN,NaN,0.15,0.85,0,1,0,0,Volatile,Stable,3.269,1.37,1.786,2.328,expert
37,1673464141851,11/01/2023 19:09:01,1673464141838,0,11/01/2023 19:09:01,111483,6,task-v1fs,repeat-u7ds#1->-repeat-l3h2#1->-repeat-pi7a#1->-repeat-apgu#1,26330620,BLIND,7766470,NaN,complete,NaN,63bdb974d4e9ba2e6133b400,computer,Desktop or Laptop,Mac OS 10.15.7,Safari 15.6.1,1920x1080,1679x1017,Start of Day 2,SLS,90,B,NaN,NaN,NaN,Pass,End of Day 1,Pass,NaN,Pass,NaN,Pass,NaN,Start of Day 2,schedule_A,schedule_A,8,3,4,feedback_l,Zone7,timelimit_screen,2002,NaN,NaN,,NaN,0,1,0,NaN,NaN,1,NaN,NaN,trial_left,yellowBox.png,yellowBox.png,redBox.png,al1_con.png,8,7,NaN,NaN,0.15,0.85,0,1,0,0,Volatile,Stable,3.269,1.37,1.786,2.328,expert
38,1673464141996,11/01/2023 19:09:01,1673464141989,0,11/01/2023 19:09:01,111483,6,task-v1fs,repeat-u7ds#1->-repeat-l3h2#1->-repeat-pi7a#1->-repeat-apgu#1,26330620,BLIND,7766470,NaN,complete,NaN,63bdb974d4e9ba2e6133b400,computer,Desktop or Laptop,Mac OS 10.15.7,Safari 15.6.1,1920x1080,1679x1017,Start of Day 2,SLS,90,B,NaN,NaN,NaN,Pass,End of Day 1,Pass,NaN,Pass,NaN,Pass,NaN,Start of Day 2,schedule_A,schedule_A,8,3,6,end,Zone1,timelimit_screen,150,NaN,NaN,,NaN,0,1,0,NaN,NaN,1,NaN,NaN,trial_left,yellowBox.png,yellowBox.png,redBox.png,al1_con.png,8,7,NaN,NaN,0.15,0.85,0,1,0,0,Volatile,Stable,3.269,1.37,1.786,2.328,expert
39,1673464143019,11/01/2023 19:09:03,1673464143008,0,11/01/2023 19:09:03,111483,6,task-v1fs,repeat-u7ds#1->-repeat-l3h2#1->-repeat-pi7a#1->-repeat-apgu#1,26330620,BLIND,7766470,NaN,complete,NaN,63bdb974d4e9ba2e6133b400,computer,Desktop or Laptop,Mac OS 10.15.7,Safari 15.6.1,1920x1080,1679x1017,Start of Day 2,SLS,90,B,NaN,NaN,NaN,Pass,End of Day 1,Pass,NaN,Pass,NaN,Pass,NaN,Start of Day 2,schedule_A,schedule_A,9,4,1,Screen 1,Zone1,continue_button,1005,NaN,NaN,,NaN,0,1,0,NaN,NaN,NaN,NaN,NaN,trial_left,yellowBox.png,redBox.png,yellowBox.png,al1_con.png,9,8,NaN,NaN,0.15,0.85,0,0,1,1,Volatile,Stable,3.975,0.576,1.256,1.807,expert
40,1673464144018,11/01/2023 19:09:04,1673464144008,0,11/01/2023 19:09:04,111483,6,task-v1fs,repeat-u7ds#1->-repeat-l3h2#1->-repeat-pi7a#1->-repeat-apgu#1,26330620,BLIND,7766470,NaN,complete,NaN,63bdb974d4e9ba2e6133b400,computer,Desktop or Laptop,Mac OS 10.15.7,Safari 15.6.1,1920x1080,1679x1017,Start of Day 2,SLS,90,B,NaN,NaN,NaN,Pass,End of Day 1,Pass,NaN,Pass,NaN,Pass,NaN,Start of Day 2,schedule_A,schedule_A,9,4,2,individual,Zone4,timelimit_screen,1001,NaN,NaN,,NaN,0,1,0,NaN,NaN,1,NaN,NaN,trial_left,yellowBox.png,redBox.png,yellowBox.png,al1_con.png,9,8,NaN,NaN,0.15,0.85,0,0,1,1,Volatile,Stable,3.975,0.576,1.256,1.807,expert
41,1673464145507,11/01/2023 19:09:05,1673464145495,0,11/01/2023 19:09:05,111483,6,task-v1fs,repeat-u7ds#1->-repeat-l3h2#1->-repeat-pi7a#1->-repeat-apgu#1,26330620,BLIND,7766470,NaN,complete,NaN,63bdb974d4e9ba2e6133b400,computer,Desktop or Laptop,Mac OS 10.15.7,Safari 15.6.1,1920x1080,1679x1017,Start of Day 2,SLS,90,B,NaN,NaN,NaN,Pass,End of Day 1,Pass,NaN,Pass,NaN,Pass,NaN,Start of Day 2,schedule_A,schedule_A,9,4,3,offer,Zone2,response_button_image,1479,NaN,NaN,redBox.png,1,0,1,0,NaN,NaN,NaN,NaN,NaN,trial_left,yellowBox.png,redBox.png,yellowBox.png,al1_con.png,9,8,NaN,NaN,0.15,0.85,0,0,1,1,Volatile,Stable,3.975,0.576,1.256,1.807,expert
42,1673464147509,11/01/2023 19:09:07,1673464147495,0,11/01/2023 19:09:07,111483,6,task-v1fs,repeat-u7ds#1->-repeat-l3h2#1->-repeat-pi7a#1->-repeat-apgu#1,26330620,BLIND,7766470,NaN,complete,NaN,63bdb974d4e9ba2e6133b400,computer,Desktop or Laptop,Mac OS 10.15.7,Safari 15.6.1,1920x1080,1679x1017,Start of Day 2,SLS,90,B,NaN,NaN,NaN,Pass,End of Day 1,Pass,NaN,Pass,NaN,Pass,NaN,Start of Day 2,schedule_A,schedule_A,9,4,4,feedback_l,Zone7,timelimit_screen,2002,NaN,NaN,,NaN,0,1,0,NaN,NaN,1,NaN,NaN,trial_left,yellowBox.png,redBox.png,yellowBox.png,al1_con.png,9,8,NaN,NaN,0.15,0.85,0,0,1,1,Volatile,Stable,3.975,0.576,1.256,1.807,expert
43,1673464147667,11/01/2023 19:09:07,1673464147643,0,11/01/2023 19:09:07,111483,6,task-v1fs,repeat-u7ds#1->-repeat-l3h2#1->-repeat-pi7a#1->-repeat-apgu#1,26330620,BLIND,7766470,NaN,complete,NaN,63bdb974d4e9ba2e6133b400,computer,Desktop or Laptop,Mac OS 10.15.7,Safari 15.6.1,1920x1080,1679x1017,Start of Day 2,SLS,90,B,NaN,NaN,NaN,Pass,End of Day 1,Pass,NaN,Pass,NaN,Pass,NaN,Start of Day 2,schedule_A,schedule_A,9,4,6,end,Zone1,timelimit_screen,150,NaN,NaN,,NaN,0,1,0,NaN,NaN,1,NaN,NaN,trial_left,yellowBox.png,redBox.png,yellowBox.png,al1_con.png,9,8,NaN,NaN,0.15,0.85,0,0,1,1,Volatile,Stable,3.975,0.576,1.256,1.807,expert
44,1673464148726,11/01/2023 19:09:08,1673464148712,0,11/01/2023 19:09:08,111483,6,task-v1fs,repeat-u7ds#1->-repeat-l3h2#1->-repeat-pi7a#1->-repeat-apgu#1,26330620,BLIND,7766470,NaN,complete,NaN,63bdb974d4e9ba2e6133b400,computer,Desktop or Laptop,Mac OS 10.15.7,Safari 15.6.1,1920x1080,1679x1017,Start of Day 2,SLS,90,B,NaN,NaN,NaN,Pass,End of Day 1,Pass,NaN,Pass,NaN,Pass,NaN,Start of Day 2,schedule_A,schedule_A,10,5,1,Screen 1,Zone1,continue_button,1054,NaN,NaN,,NaN,0,1,0,NaN,NaN,NaN,NaN,NaN,trial_right,redBox.png,redBox.png,yellowBox.png,al1_con.png,10,9,NaN,NaN,0.15,0.85,1,0,0,1,Volatile,Stable,3.798,1.055,1.559,2.042,expert
45,1673464149737,11/01/2023 19:09:09,1673464149714,0,11/01/2023 19:09:09,111483,6,task-v1fs,repeat-u7ds#1->-repeat-l3h2#1->-repeat-pi7a#1->-repeat-apgu#1,26330620,BLIND,7766470,NaN,complete,NaN,63bdb974d4e9ba2e6133b400,computer,Desktop or Laptop,Mac OS 10.15.7,Safari 15.6.1,1920x1080,1679x1017,Start of Day 2,SLS,90,B,NaN,NaN,NaN,Pass,End of Day 1,Pass,NaN,Pass,NaN,Pass,NaN,Start of Day 2,schedule_A,schedule_A,10,5,2,individual,Zone4,timelimit_screen,1003,NaN,NaN,,NaN,0,1,0,NaN,NaN,1,NaN,NaN,trial_right,redBox.png,redBox.png,yellowBox.png,al1_con.png,10,9,NaN,NaN,0.15,0.85,1,0,0,1,Volatile,Stable,3.798,1.055,1.559,2.042,expert
46,1673464151182,11/01/2023 19:09:11,1673464151165,0,11/01/2023 19:09:11,111483,6,task-v1fs,repeat-u7ds#1->-repeat-l3h2#1->-repeat-pi7a#1->-repeat-apgu#1,26330620,BLIND,7766470,NaN,complete,NaN,63bdb974d4e9ba2e6133b400,computer,Desktop or Laptop,Mac OS 10.15.7,Safari 15.6.1,1920x1080,1679x1017,Start of Day 2,SLS,90,B,NaN,NaN,NaN,Pass,End of Day 1,Pass,NaN,Pass,NaN,Pass,NaN,Start of Day 2,schedule_A,schedule_A,10,5,3,offer,Zone2,response_button_image,1443.00000000001,NaN,NaN,redBox.png,1,1,0,0,NaN,NaN,NaN,NaN,NaN,trial_right,redBox.png,redBox.png,yellowBox.png,al1_con.png,10,9,NaN,NaN,0.15,0.85,1,0,0,1,Volatile,Stable,3.798,1.055,1.559,2.042,expert
47,1673464153181,11/01/2023 19:09:13,1673464153150,0,11/01/2023 19:09:13,111483,6,task-v1fs,repeat-u7ds#1->-repeat-l3h2#1->-repeat-pi7a#1->-repeat-apgu#1,26330620,BLIND,7766470,NaN,complete,NaN,63bdb974d4e9ba2e6133b400,computer,Desktop or Laptop,Mac OS 10.15.7,Safari 15.6.1,1920x1080,1679x1017,Start of Day 2,SLS,90,B,NaN,NaN,NaN,Pass,End of Day 1,Pass,NaN,Pass,NaN,Pass,NaN,Start of Day 2,schedule_A,schedule_A,10,5,4,feedback_l,Zone7,timelimit_screen,2003,NaN,NaN,,NaN,0,1,0,NaN,NaN,1,NaN,NaN,trial_right,redBox.png,redBox.png,yellowBox.png,al1_con.png,10,9,NaN,NaN,0.15,0.85,1,0,0,1,Volatile,Stable,3.798,1.055,1.559,2.042,expert
48,1673464153474,11/01/2023 19:09:13,1673464153301,0,11/01/2023 19:09:13,111483,6,task-v1fs,repeat-u7ds#1->-repeat-l3h2#1->-repeat-pi7a#1->-repeat-apgu#1,26330620,BLIND,7766470,NaN,complete,NaN,63bdb974d4e9ba2e6133b400,computer,Desktop or Laptop,Mac OS 10.15.7,Safari 15.6.1,1920x1080,1679x1017,Start of Day 2,SLS,90,B,NaN,NaN,NaN,Pass,End of Day 1,Pass,NaN,Pass,NaN,Pass,NaN,Start of Day 2,schedule_A,schedule_A,10,5,6,end,Zone1,timelimit_screen,150,NaN,NaN,,NaN,0,1,0,NaN,NaN,1,NaN,NaN,trial_right,redBox.png,redBox.png,yellowBox.png,al1_con.png,10,9,NaN,NaN,0.15,0.85,1,0,0,1,Volatile,Stable,3.798,1.055,1.559,2.042,expert
49,1673464154398,11/01/2023 19:09:14,1673464154383,0,11/01/2023 19:09:14,111483,6,task-v1fs,repeat-u7ds#1->-repeat-l3h2#1->-repeat-pi7a#1->-repeat-apgu#1,26330620,BLIND,7766470,NaN,complete,NaN,63bdb974d4e9ba2e6133b400,computer,Desktop or Laptop,Mac OS 10.15.7,Safari 15.6.1,1920x1080,1679x1017,Start of Day 2,SLS,90,B,NaN,NaN,NaN,Pass,End of Day 1,Pass,NaN,Pass,NaN,Pass,NaN,Start of Day 2,schedule_A,schedule_A,11,6,1,Screen 1,Zone1,continue_button,1069,NaN,NaN,,NaN,0,1,0,NaN,NaN,NaN,NaN,NaN,trial_right,yellowBox.png,redBox.png,yellowBox.png,al1_con.png,21,10,NaN,NaN,0.15,0.85,0,1,0,1,Volatile,Stable,1.857,0.5,1.294,2.916,expert
50,1673464155392,11/01/2023 19:09:15,1673464155370,0,11/01/2023 19:09:15,111483,6,task-v1fs,repeat-u7ds#1->-repeat-l3h2#1->-repeat-pi7a#1->-repeat-apgu#1,26330620,BLIND,7766470,NaN,complete,NaN,63bdb974d4e9ba2e6133b400,computer,Desktop or Laptop,Mac OS 10.15.7,Safari 15.6.1,1920x1080,1679x1017,Start of Day 2,SLS,90,B,NaN,NaN,NaN,Pass,End of Day 1,Pass,NaN,Pass,NaN,Pass,NaN,Start of Day 2,schedule_A,schedule_A,11,6,2,individual,Zone4,timelimit_screen,1001,NaN,NaN,,NaN,0,1,0,NaN,NaN,1,NaN,NaN,trial_right,yellowBox.png,redBox.png,yellowBox.png,al1_con.png,21,10,NaN,NaN,0.15,0.85,0,1,0,1,Volatile,Stable,1.857,0.5,1.294,2.916,expert
51,1673464157375,11/01/2023 19:09:17,1673464157363,0,11/01/2023 19:09:17,111483,6,task-v1fs,repeat-u7ds#1->-repeat-l3h2#1->-repeat-pi7a#1->-repeat-apgu#1,26330620,BLIND,7766470,NaN,complete,NaN,63bdb974d4e9ba2e6133b400,computer,Desktop or Laptop,Mac OS 10.15.7,Safari 15.6.1,1920x1080,1679x1017,Start of Day 2,SLS,90,B,NaN,NaN,NaN,Pass,End of Day 1,Pass,NaN,Pass,NaN,Pass,NaN,Start of Day 2,schedule_A,schedule_A,11,6,3,offer,Zone2,response_button_image,1986,NaN,NaN,redBox.png,1,0,1,0,NaN,NaN,NaN,NaN,NaN,trial_right,yellowBox.png,redBox.png,yellowBox.png,al1_con.png,21,10,NaN,NaN,0.15,0.85,0,1,0,1,Volatile,Stable,1.857,0.5,1.294,2.916,expert
52,1673464159374,11/01/2023 19:09:19,1673464159357,0,11/01/2023 19:09:19,111483,6,task-v1fs,repeat-u7ds#1->-repeat-l3h2#1->-repeat-pi7a#1->-repeat-apgu#1,26330620,BLIND,7766470,NaN,complete,NaN,63bdb974d4e9ba2e6133b400,computer,Desktop or Laptop,Mac OS 10.15.7,Safari 15.6.1,1920x1080,1679x1017,Start of Day 2,SLS,90,B,NaN,NaN,NaN,Pass,End of Day 1,Pass,NaN,Pass,NaN,Pass,NaN,Start of Day 2,schedule_A,schedule_A,11,6,4,feedback_l,Zone7,timelimit_screen,2002,NaN,NaN,,NaN,0,1,0,NaN,NaN,1,NaN,NaN,trial_right,yellowBox.png,redBox.png,yellowBox.png,al1_con.png,21,10,NaN,NaN,0.15,0.85,0,1,0,1,Volatile,Stable,1.857,0.5,1.294,2.916,expert
53,1673464159517,11/01/2023 19:09:19,1673464159507,0,11/01/2023 19:09:19,111483,6,task-v1fs,repeat-u7ds#1->-repeat-l3h2#1->-repeat-pi7a#1->-repeat-apgu#1,26330620,BLIND,7766470,NaN,complete,NaN,63bdb974d4e9ba2e6133b400,computer,Desktop or Laptop,Mac OS 10.15.7,Safari 15.6.1,1920x1080,1679x1017,Start of Day 2,SLS,90,B,NaN,NaN,NaN,Pass,End of Day 1,Pass,NaN,Pass,NaN,Pass,NaN,Start of Day 2,schedule_A,schedule_A,11,6,6,end,Zone1,timelimit_screen,151,NaN,NaN,,NaN,0,1,0,NaN,NaN,1,NaN,NaN,trial_right,yellowBox.png,redBox.png,yellowBox.png,al1_con.png,21,10,NaN,NaN,0.15,0.85,0,1,0,1,Volatile,Stable,1.857,0.5,1.294,2.916,expert
54,1673464160395,11/01/2023 19:09:20,1673464160379,0,11/01/2023 19:09:20,111483,6,task-v1fs,repeat-u7ds#1->-repeat-l3h2#1->-repeat-pi7a#1->-repeat-apgu#1,26330620,BLIND,7766470,NaN,complete,NaN,63bdb974d4e9ba2e6133b400,computer,Desktop or Laptop,Mac OS 10.15.7,Safari 15.6.1,1920x1080,1679x1017,Start of Day 2,SLS,90,B,NaN,NaN,NaN,Pass,End of Day 1,Pass,NaN,Pass,NaN,Pass,NaN,Start of Day 2,schedule_A,schedule_A,12,5,1,Screen 1,Zone1,continue_button,857.999999999993,NaN,NaN,,NaN,0,1,0,NaN,NaN,NaN,NaN,NaN,trial_left,redBox.png,redBox.png,yellowBox.png,al1_con.png,22,11,NaN,NaN,0.85,0.85,1,1,1,1,Volatile,Stable,1.126,1.849,1.483,1.689,expert
55,1673464161405,11/01/2023 19:09:21,1673464161376,0,11/01/2023 19:09:21,111483,6,task-v1fs,repeat-u7ds#1->-repeat-l3h2#1->-repeat-pi7a#1->-repeat-apgu#1,26330620,BLIND,7766470,NaN,complete,NaN,63bdb974d4e9ba2e6133b400,computer,Desktop or Laptop,Mac OS 10.15.7,Safari 15.6.1,1920x1080,1679x1017,Start of Day 2,SLS,90,B,NaN,NaN,NaN,Pass,End of Day 1,Pass,NaN,Pass,NaN,Pass,NaN,Start of Day 2,schedule_A,schedule_A,12,5,2,individual,Zone4,timelimit_screen,1001,NaN,NaN,,NaN,0,1,0,NaN,NaN,1,NaN,NaN,trial_left,redBox.png,redBox.png,yellowBox.png,al1_con.png,22,11,NaN,NaN,0.85,0.85,1,1,1,1,Volatile,Stable,1.126,1.849,1.483,1.689,expert
56,1673464162538,11/01/2023 19:09:22,1673464162528,0,11/01/2023 19:09:22,111483,6,task-v1fs,repeat-u7ds#1->-repeat-l3h2#1->-repeat-pi7a#1->-repeat-apgu#1,26330620,BLIND,7766470,NaN,complete,NaN,63bdb974d4e9ba2e6133b400,computer,Desktop or Laptop,Mac OS 10.15.7,Safari 15.6.1,1920x1080,1679x1017,Start of Day 2,SLS,90,B,NaN,NaN,NaN,Pass,End of Day 1,Pass,NaN,Pass,NaN,Pass,NaN,Start of Day 2,schedule_A,schedule_A,12,5,3,offer,Zone2,response_button_image,1142.00000000001,NaN,NaN,redBox.png,1,1,0,0,NaN,NaN,NaN,NaN,NaN,trial_left,redBox.png,redBox.png,yellowBox.png,al1_con.png,22,11,NaN,NaN,0.85,0.85,1,1,1,1,Volatile,Stable,1.126,1.849,1.483,1.689,expert
57,1673464164552,11/01/2023 19:09:24,1673464164529,0,11/01/2023 19:09:24,111483,6,task-v1fs,repeat-u7ds#1->-repeat-l3h2#1->-repeat-pi7a#1->-repeat-apgu#1,26330620,BLIND,7766470,NaN,complete,NaN,63bdb974d4e9ba2e6133b400,computer,Desktop or Laptop,Mac OS 10.15.7,Safari 15.6.1,1920x1080,1679x1017,Start of Day 2,SLS,90,B,NaN,NaN,NaN,Pass,End of Day 1,Pass,NaN,Pass,NaN,Pass,NaN,Start of Day 2,schedule_A,schedule_A,12,5,4,feedback_l,Zone7,timelimit_screen,2002,NaN,NaN,,NaN,0,1,0,NaN,NaN,1,NaN,NaN,trial_left,redBox.png,redBox.png,yellowBox.png,al1_con.png,22,11,NaN,NaN,0.85,0.85,1,1,1,1,Volatile,Stable,1.126,1.849,1.483,1.689,expert
58,1673464164690,11/01/2023 19:09:24,1673464164679,0,11/01/2023 19:09:24,111483,6,task-v1fs,repeat-u7ds#1->-repeat-l3h2#1->-repeat-pi7a#1->-repeat-apgu#1,26330620,BLIND,7766470,NaN,complete,NaN,63bdb974d4e9ba2e6133b400,computer,Desktop or Laptop,Mac OS 10.15.7,Safari 15.6.1,1920x1080,1679x1017,Start of Day 2,SLS,90,B,NaN,NaN,NaN,Pass,End of Day 1,Pass,NaN,Pass,NaN,Pass,NaN,Start of Day 2,schedule_A,schedule_A,12,5,6,end,Zone1,timelimit_screen,151,NaN,NaN,,NaN,0,1,0,NaN,NaN,1,NaN,NaN,trial_left,redBox.png,redBox.png,yellowBox.png,al1_con.png,22,11,NaN,NaN,0.85,0.85,1,1,1,1,Volatile,Stable,1.126,1.849,1.483,1.689,expert
59,1673464165671,11/01/2023 19:09:25,1673464165655,0,11/01/2023 19:09:25,111483,6,task-v1fs,repeat-u7ds#1->-repeat-l3h2#1->-repeat-pi7a#1->-repeat-apgu#1,26330620,BLIND,7766470,NaN,complete,NaN,63bdb974d4e9ba2e6133b400,computer,Desktop or Laptop,Mac OS 10.15.7,Safari 15.6.1,1920x1080,1679x1017,Start of Day 2,SLS,90,B,NaN,NaN,NaN,Pass,End of Day 1,Pass,NaN,Pass,NaN,Pass,NaN,Start of Day 2,schedule_A,schedule_A,13,7,1,Screen 1,Zone1,continue_button,958,NaN,NaN,,NaN,0,1,0,NaN,NaN,NaN,NaN,NaN,trial_right,redBox.png,yellowBox.png,redBox.png,al1_con.png,23,12,NaN,NaN,0.85,0.85,1,1,1,0,Volatile,Stable,2.361,0.992,0.5,1.975,expert
60,1673464166661,11/01/2023 19:09:26,1673464166648,0,11/01/2023 19:09:26,111483,6,task-v1fs,repeat-u7ds#1->-repeat-l3h2#1->-repeat-pi7a#1->-repeat-apgu#1,26330620,BLIND,7766470,NaN,complete,NaN,63bdb974d4e9ba2e6133b400,computer,Desktop or Laptop,Mac OS 10.15.7,Safari 15.6.1,1920x1080,1679x1017,Start of Day 2,SLS,90,B,NaN,NaN,NaN,Pass,End of Day 1,Pass,NaN,Pass,NaN,Pass,NaN,Start of Day 2,schedule_A,schedule_A,13,7,2,individual,Zone4,timelimit_screen,1001,NaN,NaN,,NaN,0,1,0,NaN,NaN,1,NaN,NaN,trial_right,redBox.png,yellowBox.png,redBox.png,al1_con.png,23,12,NaN,NaN,0.85,0.85,1,1,1,0,Volatile,Stable,2.361,0.992,0.5,1.975,expert
61,1673464168033,11/01/2023 19:09:28,1673464168018,0,11/01/2023 19:09:28,111483,6,task-v1fs,repeat-u7ds#1->-repeat-l3h2#1->-repeat-pi7a#1->-repeat-apgu#1,26330620,BLIND,7766470,NaN,complete,NaN,63bdb974d4e9ba2e6133b400,computer,Desktop or Laptop,Mac OS 10.15.7,Safari 15.6.1,1920x1080,1679x1017,Start of Day 2,SLS,90,B,NaN,NaN,NaN,Pass,End of Day 1,Pass,NaN,Pass,NaN,Pass,NaN,Start of Day 2,schedule_A,schedule_A,13,7,3,offer,Zone3,response_button_image,1361,NaN,NaN,redBox.png,1,1,0,0,NaN,NaN,NaN,NaN,NaN,trial_right,redBox.png,yellowBox.png,redBox.png,al1_con.png,23,12,NaN,NaN,0.85,0.85,1,1,1,0,Volatile,Stable,2.361,0.992,0.5,1.975,expert
62,1673464170032,11/01/2023 19:09:30,1673464170018,0,11/01/2023 19:09:30,111483,6,task-v1fs,repeat-u7ds#1->-repeat-l3h2#1->-repeat-pi7a#1->-repeat-apgu#1,26330620,BLIND,7766470,NaN,complete,NaN,63bdb974d4e9ba2e6133b400,computer,Desktop or Laptop,Mac OS 10.15.7,Safari 15.6.1,1920x1080,1679x1017,Start of Day 2,SLS,90,B,NaN,NaN,NaN,Pass,End of Day 1,Pass,NaN,Pass,NaN,Pass,NaN,Start of Day 2,schedule_A,schedule_A,13,7,5,feedback_r,Zone7,timelimit_screen,2002,NaN,NaN,,NaN,0,1,0,NaN,NaN,1,NaN,NaN,trial_right,redBox.png,yellowBox.png,redBox.png,al1_con.png,23,12,NaN,NaN,0.85,0.85,1,1,1,0,Volatile,Stable,2.361,0.992,0.5,1.975,expert
63,1673464170188,11/01/2023 19:09:30,1673464170168,0,11/01/2023 19:09:30,111483,6,task-v1fs,repeat-u7ds#1->-repeat-l3h2#1->-repeat-pi7a#1->-repeat-apgu#1,26330620,BLIND,7766470,NaN,complete,NaN,63bdb974d4e9ba2e6133b400,computer,Desktop or Laptop,Mac OS 10.15.7,Safari 15.6.1,1920x1080,1679x1017,Start of Day 2,SLS,90,B,NaN,NaN,NaN,Pass,End of Day 1,Pass,NaN,Pass,NaN,Pass,NaN,Start of Day 2,schedule_A,schedule_A,13,7,6,end,Zone1,timelimit_screen,150,NaN,NaN,,NaN,0,1,0,NaN,NaN,1,NaN,NaN,trial_right,redBox.png,yellowBox.png,redBox.png,al1_con.png,23,12,NaN,NaN,0.85,0.85,1,1,1,0,Volatile,Stable,2.361,0.992,0.5,1.975,expert
64,1673464171263,11/01/2023 19:09:31,1673464171257,0,11/01/2023 19:09:31,111483,6,task-v1fs,repeat-u7ds#1->-repeat-l3h2#1->-repeat-pi7a#1->-repeat-apgu#1,26330620,BLIND,7766470,NaN,complete,NaN,63bdb974d4e9ba2e6133b400,computer,Desktop or Laptop,Mac OS 10.15.7,Safari 15.6.1,1920x1080,1679x1017,Start of Day 2,SLS,90,B,NaN,NaN,NaN,Pass,End of Day 1,Pass,NaN,Pass,NaN,Pass,NaN,Start of Day 2,schedule_A,schedule_A,14,8,1,Screen 1,Zone1,continue_button,1073.99999999999,NaN,NaN,,NaN,0,1,0,NaN,NaN,NaN,NaN,NaN,trial_right,redBox.png,redBox.png,yellowBox.png,al1_con.png,24,13,NaN,NaN,0.85,0.85,1,0,0,1,Volatile,Stable,1.05,1.95,1.319,1.487,expert
65,1673464172268,11/01/2023 19:09:32,1673464172254,0,11/01/2023 19:09:32,111483,6,task-v1fs,repeat-u7ds#1->-repeat-l3h2#1->-repeat-pi7a#1->-repeat-apgu#1,26330620,BLIND,7766470,NaN,complete,NaN,63bdb974d4e9ba2e6133b400,computer,Desktop or Laptop,Mac OS 10.15.7,Safari 15.6.1,1920x1080,1679x1017,Start of Day 2,SLS,90,B,NaN,NaN,NaN,Pass,End of Day 1,Pass,NaN,Pass,NaN,Pass,NaN,Start of Day 2,schedule_A,schedule_A,14,8,2,individual,Zone4,timelimit_screen,1001,NaN,NaN,,NaN,0,1,0,NaN,NaN,1,NaN,NaN,trial_right,redBox.png,redBox.png,yellowBox.png,al1_con.png,24,13,NaN,NaN,0.85,0.85,1,0,0,1,Volatile,Stable,1.05,1.95,1.319,1.487,expert
66,1673464173503,11/01/2023 19:09:33,1673464173485,0,11/01/2023 19:09:33,111483,6,task-v1fs,repeat-u7ds#1->-repeat-l3h2#1->-repeat-pi7a#1->-repeat-apgu#1,26330620,BLIND,7766470,NaN,complete,NaN,63bdb974d4e9ba2e6133b400,computer,Desktop or Laptop,Mac OS 10.15.7,Safari 15.6.1,1920x1080,1679x1017,Start of Day 2,SLS,90,B,NaN,NaN,NaN,Pass,End of Day 1,Pass,NaN,Pass,NaN,Pass,NaN,Start of Day 2,schedule_A,schedule_A,14,8,3,offer,Zone3,response_button_image,1222,NaN,NaN,yellowBox.png,1,0,1,0,NaN,NaN,NaN,NaN,NaN,trial_right,redBox.png,redBox.png,yellowBox.png,al1_con.png,24,13,NaN,NaN,0.85,0.85,1,0,0,1,Volatile,Stable,1.05,1.95,1.319,1.487,expert
67,1673464175487,11/01/2023 19:09:35,1673464175474,0,11/01/2023 19:09:35,111483,6,task-v1fs,repeat-u7ds#1->-repeat-l3h2#1->-repeat-pi7a#1->-repeat-apgu#1,26330620,BLIND,7766470,NaN,complete,NaN,63bdb974d4e9ba2e6133b400,computer,Desktop or Laptop,Mac OS 10.15.7,Safari 15.6.1,1920x1080,1679x1017,Start of Day 2,SLS,90,B,NaN,NaN,NaN,Pass,End of Day 1,Pass,NaN,Pass,NaN,Pass,NaN,Start of Day 2,schedule_A,schedule_A,14,8,5,feedback_r,Zone7,timelimit_screen,2002,NaN,NaN,,NaN,0,1,0,NaN,NaN,1,NaN,NaN,trial_right,redBox.png,redBox.png,yellowBox.png,al1_con.png,24,13,NaN,NaN,0.85,0.85,1,0,0,1,Volatile,Stable,1.05,1.95,1.319,1.487,expert
68,1673464175636,11/01/2023 19:09:35,1673464175624,0,11/01/2023 19:09:35,111483,6,task-v1fs,repeat-u7ds#1->-repeat-l3h2#1->-repeat-pi7a#1->-repeat-apgu#1,26330620,BLIND,7766470,NaN,complete,NaN,63bdb974d4e9ba2e6133b400,computer,Desktop or Laptop,Mac OS 10.15.7,Safari 15.6.1,1920x1080,1679x1017,Start of Day 2,SLS,90,B,NaN,NaN,NaN,Pass,End of Day 1,Pass,NaN,Pass,NaN,Pass,NaN,Start of Day 2,schedule_A,schedule_A,14,8,6,end,Zone1,timelimit_screen,150,NaN,NaN,,NaN,0,1,0,NaN,NaN,1,NaN,NaN,trial_right,redBox.png,redBox.png,yellowBox.png,al1_con.png,24,13,NaN,NaN,0.85,0.85,1,0,0,1,Volatile,Stable,1.05,1.95,1.319,1.487,expert
69,1673464176756,11/01/2023 19:09:36,1673464176737,0,11/01/2023 19:09:36,111483,6,task-v1fs,repeat-u7ds#1->-repeat-l3h2#1->-repeat-pi7a#1->-repeat-apgu#1,26330620,BLIND,7766470,NaN,complete,NaN,63bdb974d4e9ba2e6133b400,computer,Desktop or Laptop,Mac OS 10.15.7,Safari 15.6.1,1920x1080,1679x1017,Start of Day 2,SLS,90,B,NaN,NaN,NaN,Pass,End of Day 1,Pass,NaN,Pass,NaN,Pass,NaN,Start of Day 2,schedule_A,schedule_A,15,9,1,Screen 1,Zone1,continue_button,1098,NaN,NaN,,NaN,0,1,0,NaN,NaN,NaN,NaN,NaN,trial_right,redBox.png,yellowBox.png,redBox.png,al1_con.png,25,14,NaN,NaN,0.85,0.85,1,1,1,0,Volatile,Stable,3.395,0.84,0.803,1.252,expert
70,1673464177744,11/01/2023 19:09:37,1673464177727,0,11/01/2023 19:09:37,111483,6,task-v1fs,repeat-u7ds#1->-repeat-l3h2#1->-repeat-pi7a#1->-repeat-apgu#1,26330620,BLIND,7766470,NaN,complete,NaN,63bdb974d4e9ba2e6133b400,computer,Desktop or Laptop,Mac OS 10.15.7,Safari 15.6.1,1920x1080,1679x1017,Start of Day 2,SLS,90,B,NaN,NaN,NaN,Pass,End of Day 1,Pass,NaN,Pass,NaN,Pass,NaN,Start of Day 2,schedule_A,schedule_A,15,9,2,individual,Zone4,timelimit_screen,1001,NaN,NaN,,NaN,0,1,0,NaN,NaN,1,NaN,NaN,trial_right,redBox.png,yellowBox.png,redBox.png,al1_con.png,25,14,NaN,NaN,0.85,0.85,1,1,1,0,Volatile,Stable,3.395,0.84,0.803,1.252,expert
71,1673464179538,11/01/2023 19:09:39,1673464179515,0,11/01/2023 19:09:39,111483,6,task-v1fs,repeat-u7ds#1->-repeat-l3h2#1->-repeat-pi7a#1->-repeat-apgu#1,26330620,BLIND,7766470,NaN,complete,NaN,63bdb974d4e9ba2e6133b400,computer,Desktop or Laptop,Mac OS 10.15.7,Safari 15.6.1,1920x1080,1679x1017,Start of Day 2,SLS,90,B,NaN,NaN,NaN,Pass,End of Day 1,Pass,NaN,Pass,NaN,Pass,NaN,Start of Day 2,schedule_A,schedule_A,15,9,3,offer,Zone3,response_button_image,1780,NaN,NaN,redBox.png,1,1,0,0,NaN,NaN,NaN,NaN,NaN,trial_right,redBox.png,yellowBox.png,redBox.png,al1_con.png,25,14,NaN,NaN,0.85,0.85,1,1,1,0,Volatile,Stable,3.395,0.84,0.803,1.252,expert
72,1673464181540,11/01/2023 19:09:41,1673464181514,0,11/01/2023 19:09:41,111483,6,task-v1fs,repeat-u7ds#1->-repeat-l3h2#1->-repeat-pi7a#1->-repeat-apgu#1,26330620,BLIND,7766470,NaN,complete,NaN,63bdb974d4e9ba2e6133b400,computer,Desktop or Laptop,Mac OS 10.15.7,Safari 15.6.1,1920x1080,1679x1017,Start of Day 2,SLS,90,B,NaN,NaN,NaN,Pass,End of Day 1,Pass,NaN,Pass,NaN,Pass,NaN,Start of Day 2,schedule_A,schedule_A,15,9,5,feedback_r,Zone7,timelimit_screen,2002,NaN,NaN,,NaN,0,1,0,NaN,NaN,1,NaN,NaN,trial_right,redBox.png,yellowBox.png,redBox.png,al1_con.png,25,14,NaN,NaN,0.85,0.85,1,1,1,0,Volatile,Stable,3.395,0.84,0.803,1.252,expert
73,1673464181680,11/01/2023 19:09:41,1673464181663,0,11/01/2023 19:09:41,111483,6,task-v1fs,repeat-u7ds#1->-repeat-l3h2#1->-repeat-pi7a#1->-repeat-apgu#1,26330620,BLIND,7766470,NaN,complete,NaN,63bdb974d4e9ba2e6133b400,computer,Desktop or Laptop,Mac OS 10.15.7,Safari 15.6.1,1920x1080,1679x1017,Start of Day 2,SLS,90,B,NaN,NaN,NaN,Pass,End of Day 1,Pass,NaN,Pass,NaN,Pass,NaN,Start of Day 2,schedule_A,schedule_A,15,9,6,end,Zone1,timelimit_screen,150,NaN,NaN,,NaN,0,1,0,NaN,NaN,1,NaN,NaN,trial_right,redBox.png,yellowBox.png,redBox.png,al1_con.png,25,14,NaN,NaN,0.85,0.85,1,1,1,0,Volatile,Stable,3.395,0.84,0.803,1.252,expert
74,1673464182529,11/01/2023 19:09:42,1673464182508,0,11/01/2023 19:09:42,111483,6,task-v1fs,repeat-u7ds#1->-repeat-l3h2#1->-repeat-pi7a#1->-repeat-apgu#1,26330620,BLIND,7766470,NaN,complete,NaN,63bdb974d4e9ba2e6133b400,computer,Desktop or Laptop,Mac OS 10.15.7,Safari 15.6.1,1920x1080,1679x1017,Start of Day 2,SLS,90,B,NaN,NaN,NaN,Pass,End of Day 1,Pass,NaN,Pass,NaN,Pass,NaN,Start of Day 2,schedule_A,schedule_A,16,10,1,Screen 1,Zone1,continue_button,829,NaN,NaN,,NaN,0,1,0,NaN,NaN,NaN,NaN,NaN,trial_right,yellowBox.png,redBox.png,yellowBox.png,al1_con.png,26,15,NaN,NaN,0.85,0.85,0,1,0,1,Volatile,Stable,2.689,1.067,1.697,2.731,expert
75,1673464183507,11/01/2023 19:09:43,1673464183499,0,11/01/2023 19:09:43,111483,6,task-v1fs,repeat-u7ds#1->-repeat-l3h2#1->-repeat-pi7a#1->-repeat-apgu#1,26330620,BLIND,7766470,NaN,complete,NaN,63bdb974d4e9ba2e6133b400,computer,Desktop or Laptop,Mac OS 10.15.7,Safari 15.6.1,1920x1080,1679x1017,Start of Day 2,SLS,90,B,NaN,NaN,NaN,Pass,End of Day 1,Pass,NaN,Pass,NaN,Pass,NaN,Start of Day 2,schedule_A,schedule_A,16,10,2,individual,Zone4,timelimit_screen,1001,NaN,NaN,,NaN,0,1,0,NaN,NaN,1,NaN,NaN,trial_right,yellowBox.png,redBox.png,yellowBox.png,al1_con.png,26,15,NaN,NaN,0.85,0.85,0,1,0,1,Volatile,Stable,2.689,1.067,1.697,2.731,expert
76,1673464185573,11/01/2023 19:09:45,1673464185545,0,11/01/2023 19:09:45,111483,6,task-v1fs,repeat-u7ds#1->-repeat-l3h2#1->-repeat-pi7a#1->-repeat-apgu#1,26330620,BLIND,7766470,NaN,complete,NaN,63bdb974d4e9ba2e6133b400,computer,Desktop or Laptop,Mac OS 10.15.7,Safari 15.6.1,1920x1080,1679x1017,Start of Day 2,SLS,90,B,NaN,NaN,NaN,Pass,End of Day 1,Pass,NaN,Pass,NaN,Pass,NaN,Start of Day 2,schedule_A,schedule_A,16,10,3,offer,Zone3,response_button_image,2037,NaN,NaN,yellowBox.png,1,1,0,0,NaN,NaN,NaN,NaN,NaN,trial_right,yellowBox.png,redBox.png,yellowBox.png,al1_con.png,26,15,NaN,NaN,0.85,0.85,0,1,0,1,Volatile,Stable,2.689,1.067,1.697,2.731,expert
77,1673464187558,11/01/2023 19:09:47,1673464187537,0,11/01/2023 19:09:47,111483,6,task-v1fs,repeat-u7ds#1->-repeat-l3h2#1->-repeat-pi7a#1->-repeat-apgu#1,26330620,BLIND,7766470,NaN,complete,NaN,63bdb974d4e9ba2e6133b400,computer,Desktop or Laptop,Mac OS 10.15.7,Safari 15.6.1,1920x1080,1679x1017,Start of Day 2,SLS,90,B,NaN,NaN,NaN,Pass,End of Day 1,Pass,NaN,Pass,NaN,Pass,NaN,Start of Day 2,schedule_A,schedule_A,16,10,5,feedback_r,Zone7,timelimit_screen,2003,NaN,NaN,,NaN,0,1,0,NaN,NaN,1,NaN,NaN,trial_right,yellowBox.png,redBox.png,yellowBox.png,al1_con.png,26,15,NaN,NaN,0.85,0.85,0,1,0,1,Volatile,Stable,2.689,1.067,1.697,2.731,expert
78,1673464187713,11/01/2023 19:09:47,1673464187687,0,11/01/2023 19:09:47,111483,6,task-v1fs,repeat-u7ds#1->-repeat-l3h2#1->-repeat-pi7a#1->-repeat-apgu#1,26330620,BLIND,7766470,NaN,complete,NaN,63bdb974d4e9ba2e6133b400,computer,Desktop or Laptop,Mac OS 10.15.7,Safari 15.6.1,1920x1080,1679x1017,Start of Day 2,SLS,90,B,NaN,NaN,NaN,Pass,End of Day 1,Pass,NaN,Pass,NaN,Pass,NaN,Start of Day 2,schedule_A,schedule_A,16,10,6,end,Zone1,timelimit_screen,150,NaN,NaN,,NaN,0,1,0,NaN,NaN,1,NaN,NaN,trial_right,yellowBox.png,redBox.png,yellowBox.png,al1_con.png,26,15,NaN,NaN,0.85,0.85,0,1,0,1,Volatile,Stable,2.689,1.067,1.697,2.731,expert
79,1673464188360,11/01/2023 19:09:48,1673464188335,0,11/01/2023 19:09:48,111483,6,task-v1fs,repeat-u7ds#1->-repeat-l3h2#1->-repeat-pi7a#1->-repeat-apgu#1,26330620,BLIND,7766470,NaN,complete,NaN,63bdb974d4e9ba2e6133b400,computer,Desktop or Laptop,Mac OS 10.15.7,Safari 15.6.1,1920x1080,1679x1017,Start of Day 2,SLS,90,B,NaN,NaN,NaN,Pass,End of Day 1,Pass,NaN,Pass,NaN,Pass,NaN,Start of Day 2,schedule_A,schedule_A,17,6,1,Screen 1,Zone1,continue_button,633.000000000015,NaN,NaN,,NaN,0,1,0,NaN,NaN,NaN,NaN,NaN,trial_left,yellowBox.png,yellowBox.png,redBox.png,al1_con.png,27,16,NaN,NaN,0.15,0.85,0,1,0,0,Volatile,Stable,1.378,0.689,0.878,2.076,expert
80,1673464189347,11/01/2023 19:09:49,1673464189322,0,11/01/2023 19:09:49,111483,6,task-v1fs,repeat-u7ds#1->-repeat-l3h2#1->-repeat-pi7a#1->-repeat-apgu#1,26330620,BLIND,7766470,NaN,complete,NaN,63bdb974d4e9ba2e6133b400,computer,Desktop or Laptop,Mac OS 10.15.7,Safari 15.6.1,1920x1080,1679x1017,Start of Day 2,SLS,90,B,NaN,NaN,NaN,Pass,End of Day 1,Pass,NaN,Pass,NaN,Pass,NaN,Start of Day 2,schedule_A,schedule_A,17,6,2,individual,Zone4,timelimit_screen,1001,NaN,NaN,,NaN,0,1,0,NaN,NaN,1,NaN,NaN,trial_left,yellowBox.png,yellowBox.png,redBox.png,al1_con.png,27,16,NaN,NaN,0.15,0.85,0,1,0,0,Volatile,Stable,1.378,0.689,0.878,2.076,expert
81,1673464190831,11/01/2023 19:09:50,1673464190810,0,11/01/2023 19:09:50,111483,6,task-v1fs,repeat-u7ds#1->-repeat-l3h2#1->-repeat-pi7a#1->-repeat-apgu#1,26330620,BLIND,7766470,NaN,complete,NaN,63bdb974d4e9ba2e6133b400,computer,Desktop or Laptop,Mac OS 10.15.7,Safari 15.6.1,1920x1080,1679x1017,Start of Day 2,SLS,90,B,NaN,NaN,NaN,Pass,End of Day 1,Pass,NaN,Pass,NaN,Pass,NaN,Start of Day 2,schedule_A,schedule_A,17,6,3,offer,Zone2,response_button_image,1480,NaN,NaN,yellowBox.png,1,1,0,0,NaN,NaN,NaN,NaN,NaN,trial_left,yellowBox.png,yellowBox.png,redBox.png,al1_con.png,27,16,NaN,NaN,0.15,0.85,0,1,0,0,Volatile,Stable,1.378,0.689,0.878,2.076,expert
82,1673464192819,11/01/2023 19:09:52,1673464192809,0,11/01/2023 19:09:52,111483,6,task-v1fs,repeat-u7ds#1->-repeat-l3h2#1->-repeat-pi7a#1->-repeat-apgu#1,26330620,BLIND,7766470,NaN,complete,NaN,63bdb974d4e9ba2e6133b400,computer,Desktop or Laptop,Mac OS 10.15.7,Safari 15.6.1,1920x1080,1679x1017,Start of Day 2,SLS,90,B,NaN,NaN,NaN,Pass,End of Day 1,Pass,NaN,Pass,NaN,Pass,NaN,Start of Day 2,schedule_A,schedule_A,17,6,4,feedback_l,Zone7,timelimit_screen,2003,NaN,NaN,,NaN,0,1,0,NaN,NaN,1,NaN,NaN,trial_left,yellowBox.png,yellowBox.png,redBox.png,al1_con.png,27,16,NaN,NaN,0.15,0.85,0,1,0,0,Volatile,Stable,1.378,0.689,0.878,2.076,expert
83,1673464192983,11/01/2023 19:09:52,1673464192959,0,11/01/2023 19:09:52,111483,6,task-v1fs,repeat-u7ds#1->-repeat-l3h2#1->-repeat-pi7a#1->-repeat-apgu#1,26330620,BLIND,7766470,NaN,complete,NaN,63bdb974d4e9ba2e6133b400,computer,Desktop or Laptop,Mac OS 10.15.7,Safari 15.6.1,1920x1080,1679x1017,Start of Day 2,SLS,90,B,NaN,NaN,NaN,Pass,End of Day 1,Pass,NaN,Pass,NaN,Pass,NaN,Start of Day 2,schedule_A,schedule_A,17,6,6,end,Zone1,timelimit_screen,150,NaN,NaN,,NaN,0,1,0,NaN,NaN,1,NaN,NaN,trial_left,yellowBox.png,yellowBox.png,redBox.png,al1_con.png,27,16,NaN,NaN,0.15,0.85,0,1,0,0,Volatile,Stable,1.378,0.689,0.878,2.076,expert
84,1673464193585,11/01/2023 19:09:53,1673464193567,0,11/01/2023 19:09:53,111483,6,task-v1fs,repeat-u7ds#1->-repeat-l3h2#1->-repeat-pi7a#1->-repeat-apgu#1,26330620,BLIND,7766470,NaN,complete,NaN,63bdb974d4e9ba2e6133b400,computer,Desktop or Laptop,Mac OS 10.15.7,Safari 15.6.1,1920x1080,1679x1017,Start of Day 2,SLS,90,B,NaN,NaN,NaN,Pass,End of Day 1,Pass,NaN,Pass,NaN,Pass,NaN,Start of Day 2,schedule_A,schedule_A,18,11,1,Screen 1,Zone1,continue_button,593.000000000015,NaN,NaN,,NaN,0,1,0,NaN,NaN,NaN,NaN,NaN,trial_right,yellowBox.png,redBox.png,yellowBox.png,al1_con.png,28,17,NaN,NaN,0.15,0.85,0,1,0,1,Volatile,Stable,2.714,0.739,1.975,1.134,expert
85,1673464194582,11/01/2023 19:09:54,1673464194562,0,11/01/2023 19:09:54,111483,6,task-v1fs,repeat-u7ds#1->-repeat-l3h2#1->-repeat-pi7a#1->-repeat-apgu#1,26330620,BLIND,7766470,NaN,complete,NaN,63bdb974d4e9ba2e6133b400,computer,Desktop or Laptop,Mac OS 10.15.7,Safari 15.6.1,1920x1080,1679x1017,Start of Day 2,SLS,90,B,NaN,NaN,NaN,Pass,End of Day 1,Pass,NaN,Pass,NaN,Pass,NaN,Start of Day 2,schedule_A,schedule_A,18,11,2,individual,Zone4,timelimit_screen,1001,NaN,NaN,,NaN,0,1,0,NaN,NaN,1,NaN,NaN,trial_right,yellowBox.png,redBox.png,yellowBox.png,al1_con.png,28,17,NaN,NaN,0.15,0.85,0,1,0,1,Volatile,Stable,2.714,0.739,1.975,1.134,expert
86,1673464196050,11/01/2023 19:09:56,1673464196031,0,11/01/2023 19:09:56,111483,6,task-v1fs,repeat-u7ds#1->-repeat-l3h2#1->-repeat-pi7a#1->-repeat-apgu#1,26330620,BLIND,7766470,NaN,complete,NaN,63bdb974d4e9ba2e6133b400,computer,Desktop or Laptop,Mac OS 10.15.7,Safari 15.6.1,1920x1080,1679x1017,Start of Day 2,SLS,90,B,NaN,NaN,NaN,Pass,End of Day 1,Pass,NaN,Pass,NaN,Pass,NaN,Start of Day 2,schedule_A,schedule_A,18,11,3,offer,Zone3,response_button_image,1459,NaN,NaN,yellowBox.png,1,1,0,0,NaN,NaN,NaN,NaN,NaN,trial_right,yellowBox.png,redBox.png,yellowBox.png,al1_con.png,28,17,NaN,NaN,0.15,0.85,0,1,0,1,Volatile,Stable,2.714,0.739,1.975,1.134,expert
87,1673464198070,11/01/2023 19:09:58,1673464198032,0,11/01/2023 19:09:58,111483,6,task-v1fs,repeat-u7ds#1->-repeat-l3h2#1->-repeat-pi7a#1->-repeat-apgu#1,26330620,BLIND,7766470,NaN,complete,NaN,63bdb974d4e9ba2e6133b400,computer,Desktop or Laptop,Mac OS 10.15.7,Safari 15.6.1,1920x1080,1679x1017,Start of Day 2,SLS,90,B,NaN,NaN,NaN,Pass,End of Day 1,Pass,NaN,Pass,NaN,Pass,NaN,Start of Day 2,schedule_A,schedule_A,18,11,5,feedback_r,Zone7,timelimit_screen,2003,NaN,NaN,,NaN,0,1,0,NaN,NaN,1,NaN,NaN,trial_right,yellowBox.png,redBox.png,yellowBox.png,al1_con.png,28,17,NaN,NaN,0.15,0.85,0,1,0,1,Volatile,Stable,2.714,0.739,1.975,1.134,expert
88,1673464198193,11/01/2023 19:09:58,1673464198181,0,11/01/2023 19:09:58,111483,6,task-v1fs,repeat-u7ds#1->-repeat-l3h2#1->-repeat-pi7a#1->-repeat-apgu#1,26330620,BLIND,7766470,NaN,complete,NaN,63bdb974d4e9ba2e6133b400,computer,Desktop or Laptop,Mac OS 10.15.7,Safari 15.6.1,1920x1080,1679x1017,Start of Day 2,SLS,90,B,NaN,NaN,NaN,Pass,End of Day 1,Pass,NaN,Pass,NaN,Pass,NaN,Start of Day 2,schedule_A,schedule_A,18,11,6,end,Zone1,timelimit_screen,149,NaN,NaN,,NaN,0,1,0,NaN,NaN,1,NaN,NaN,trial_right,yellowBox.png,redBox.png,yellowBox.png,al1_con.png,28,17,NaN,NaN,0.15,0.85,0,1,0,1,Volatile,Stable,2.714,0.739,1.975,1.134,expert
89,1673464198830,11/01/2023 19:09:58,1673464198810,0,11/01/2023 19:09:58,111483,6,task-v1fs,repeat-u7ds#1->-repeat-l3h2#1->-repeat-pi7a#1->-repeat-apgu#1,26330620,BLIND,7766470,NaN,complete,NaN,63bdb974d4e9ba2e6133b400,computer,Desktop or Laptop,Mac OS 10.15.7,Safari 15.6.1,1920x1080,1679x1017,Start of Day 2,SLS,90,B,NaN,NaN,NaN,Pass,End of Day 1,Pass,NaN,Pass,NaN,Pass,NaN,Start of Day 2,schedule_A,schedule_A,19,7,1,Screen 1,Zone1,continue_button,611,NaN,NaN,,NaN,0,1,0,NaN,NaN,NaN,NaN,NaN,trial_left,yellowBox.png,yellowBox.png,redBox.png,al1_con.png,29,18,NaN,NaN,0.15,0.85,0,1,0,0,Volatile,Stable,3.874,0.676,1.496,1.639,expert
90,1673464199809,11/01/2023 19:09:59,1673464199800,0,11/01/2023 19:09:59,111483,6,task-v1fs,repeat-u7ds#1->-repeat-l3h2#1->-repeat-pi7a#1->-repeat-apgu#1,26330620,BLIND,7766470,NaN,complete,NaN,63bdb974d4e9ba2e6133b400,computer,Desktop or Laptop,Mac OS 10.15.7,Safari 15.6.1,1920x1080,1679x1017,Start of Day 2,SLS,90,B,NaN,NaN,NaN,Pass,End of Day 1,Pass,NaN,Pass,NaN,Pass,NaN,Start of Day 2,schedule_A,schedule_A,19,7,2,individual,Zone4,timelimit_screen,1001,NaN,NaN,,NaN,0,1,0,NaN,NaN,1,NaN,NaN,trial_left,yellowBox.png,yellowBox.png,redBox.png,al1_con.png,29,18,NaN,NaN,0.15,0.85,0,1,0,0,Volatile,Stable,3.874,0.676,1.496,1.639,expert
91,1673464201005,11/01/2023 19:10:01,1673464200980,0,11/01/2023 19:10:00,111483,6,task-v1fs,repeat-u7ds#1->-repeat-l3h2#1->-repeat-pi7a#1->-repeat-apgu#1,26330620,BLIND,7766470,NaN,complete,NaN,63bdb974d4e9ba2e6133b400,computer,Desktop or Laptop,Mac OS 10.15.7,Safari 15.6.1,1920x1080,1679x1017,Start of Day 2,SLS,90,B,NaN,NaN,NaN,Pass,End of Day 1,Pass,NaN,Pass,NaN,Pass,NaN,Start of Day 2,schedule_A,schedule_A,19,7,3,offer,Zone2,response_button_image,1172,NaN,NaN,yellowBox.png,1,1,0,0,NaN,NaN,NaN,NaN,NaN,trial_left,yellowBox.png,yellowBox.png,redBox.png,al1_con.png,29,18,NaN,NaN,0.15,0.85,0,1,0,0,Volatile,Stable,3.874,0.676,1.496,1.639,expert
92,1673464202987,11/01/2023 19:10:02,1673464202970,0,11/01/2023 19:10:02,111483,6,task-v1fs,repeat-u7ds#1->-repeat-l3h2#1->-repeat-pi7a#1->-repeat-apgu#1,26330620,BLIND,7766470,NaN,complete,NaN,63bdb974d4e9ba2e6133b400,computer,Desktop or Laptop,Mac OS 10.15.7,Safari 15.6.1,1920x1080,1679x1017,Start of Day 2,SLS,90,B,NaN,NaN,NaN,Pass,End of Day 1,Pass,NaN,Pass,NaN,Pass,NaN,Start of Day 2,schedule_A,schedule_A,19,7,4,feedback_l,Zone7,timelimit_screen,2003,NaN,NaN,,NaN,0,1,0,NaN,NaN,1,NaN,NaN,trial_left,yellowBox.png,yellowBox.png,redBox.png,al1_con.png,29,18,NaN,NaN,0.15,0.85,0,1,0,0,Volatile,Stable,3.874,0.676,1.496,1.639,expert
93,1673464203142,11/01/2023 19:10:03,1673464203120,0,11/01/2023 19:10:03,111483,6,task-v1fs,repeat-u7ds#1->-repeat-l3h2#1->-repeat-pi7a#1->-repeat-apgu#1,26330620,BLIND,7766470,NaN,complete,NaN,63bdb974d4e9ba2e6133b400,computer,Desktop or Laptop,Mac OS 10.15.7,Safari 15.6.1,1920x1080,1679x1017,Start of Day 2,SLS,90,B,NaN,NaN,NaN,Pass,End of Day 1,Pass,NaN,Pass,NaN,Pass,NaN,Start of Day 2,schedule_A,schedule_A,19,7,6,end,Zone1,timelimit_screen,150,NaN,NaN,,NaN,0,1,0,NaN,NaN,1,NaN,NaN,trial_left,yellowBox.png,yellowBox.png,redBox.png,al1_con.png,29,18,NaN,NaN,0.15,0.85,0,1,0,0,Volatile,Stable,3.874,0.676,1.496,1.639,expert
94,1673464203964,11/01/2023 19:10:03,1673464203939,0,11/01/2023 19:10:03,111483,6,task-v1fs,repeat-u7ds#1->-repeat-l3h2#1->-repeat-pi7a#1->-repeat-apgu#1,26330620,BLIND,7766470,NaN,complete,NaN,63bdb974d4e9ba2e6133b400,computer,Desktop or Laptop,Mac OS 10.15.7,Safari 15.6.1,1920x1080,1679x1017,Start of Day 2,SLS,90,B,NaN,NaN,NaN,Pass,End of Day 1,Pass,NaN,Pass,NaN,Pass,NaN,Start of Day 2,schedule_A,schedule_A,20,12,1,Screen 1,Zone1,continue_button,803,NaN,NaN,,NaN,0,1,0,NaN,NaN,NaN,NaN,NaN,trial_right,yellowBox.png,yellowBox.png,redBox.png,al1_con.png,30,19,NaN,NaN,0.15,0.85,0,0,1,0,Volatile,Stable,1.252,1.193,0.853,2.681,expert
95,1673464204957,11/01/2023 19:10:04,1673464204939,0,11/01/2023 19:10:04,111483,6,task-v1fs,repeat-u7ds#1->-repeat-l3h2#1->-repeat-pi7a#1->-repeat-apgu#1,26330620,BLIND,7766470,NaN,complete,NaN,63bdb974d4e9ba2e6133b400,computer,Desktop or Laptop,Mac OS 10.15.7,Safari 15.6.1,1920x1080,1679x1017,Start of Day 2,SLS,90,B,NaN,NaN,NaN,Pass,End of Day 1,Pass,NaN,Pass,NaN,Pass,NaN,Start of Day 2,schedule_A,schedule_A,20,12,2,individual,Zone4,timelimit_screen,1001,NaN,NaN,,NaN,0,1,0,NaN,NaN,1,NaN,NaN,trial_right,yellowBox.png,yellowBox.png,redBox.png,al1_con.png,30,19,NaN,NaN,0.15,0.85,0,0,1,0,Volatile,Stable,1.252,1.193,0.853,2.681,expert
96,1673464205786,11/01/2023 19:10:05,1673464205739,0,11/01/2023 19:10:05,111483,6,task-v1fs,repeat-u7ds#1->-repeat-l3h2#1->-repeat-pi7a#1->-repeat-apgu#1,26330620,BLIND,7766470,NaN,complete,NaN,63bdb974d4e9ba2e6133b400,computer,Desktop or Laptop,Mac OS 10.15.7,Safari 15.6.1,1920x1080,1679x1017,Start of Day 2,SLS,90,B,NaN,NaN,NaN,Pass,End of Day 1,Pass,NaN,Pass,NaN,Pass,NaN,Start of Day 2,schedule_A,schedule_A,20,12,3,offer,Zone3,response_button_image,791.999999999985,NaN,NaN,redBox.png,1,0,1,0,NaN,NaN,NaN,NaN,NaN,trial_right,yellowBox.png,yellowBox.png,redBox.png,al1_con.png,30,19,NaN,NaN,0.15,0.85,0,0,1,0,Volatile,Stable,1.252,1.193,0.853,2.681,expert
97,1673464207760,11/01/2023 19:10:07,1673464207742,0,11/01/2023 19:10:07,111483,6,task-v1fs,repeat-u7ds#1->-repeat-l3h2#1->-repeat-pi7a#1->-repeat-apgu#1,26330620,BLIND,7766470,NaN,complete,NaN,63bdb974d4e9ba2e6133b400,computer,Desktop or Laptop,Mac OS 10.15.7,Safari 15.6.1,1920x1080,1679x1017,Start of Day 2,SLS,90,B,NaN,NaN,NaN,Pass,End of Day 1,Pass,NaN,Pass,NaN,Pass,NaN,Start of Day 2,schedule_A,schedule_A,20,12,5,feedback_r,Zone7,timelimit_screen,2003,NaN,NaN,,NaN,0,1,0,NaN,NaN,1,NaN,NaN,trial_right,yellowBox.png,yellowBox.png,redBox.png,al1_con.png,30,19,NaN,NaN,0.15,0.85,0,0,1,0,Volatile,Stable,1.252,1.193,0.853,2.681,expert
98,1673464207912,11/01/2023 19:10:07,1673464207892,0,11/01/2023 19:10:07,111483,6,task-v1fs,repeat-u7ds#1->-repeat-l3h2#1->-repeat-pi7a#1->-repeat-apgu#1,26330620,BLIND,7766470,NaN,complete,NaN,63bdb974d4e9ba2e6133b400,computer,Desktop or Laptop,Mac OS 10.15.7,Safari 15.6.1,1920x1080,1679x1017,Start of Day 2,SLS,90,B,NaN,NaN,NaN,Pass,End of Day 1,Pass,NaN,Pass,NaN,Pass,NaN,Start of Day 2,schedule_A,schedule_A,20,12,6,end,Zone1,timelimit_screen,150,NaN,NaN,,NaN,0,1,0,NaN,NaN,1,NaN,NaN,trial_right,yellowBox.png,yellowBox.png,redBox.png,al1_con.png,30,19,NaN,NaN,0.15,0.85,0,0,1,0,Volatile,Stable,1.252,1.193,0.853,2.681,expert
99,1673464208731,11/01/2023 19:10:08,1673464208709,0,11/01/2023 19:10:08,111483,6,task-v1fs,repeat-u7ds#1->-repeat-l3h2#1->-repeat-pi7a#1->-repeat-apgu#1,26330620,BLIND,7766470,NaN,complete,NaN,63bdb974d4e9ba2e6133b400,computer,Desktop or Laptop,Mac OS 10.15.7,Safari 15.6.1,1920x1080,1679x1017,Start of Day 2,SLS,90,B,NaN,NaN,NaN,Pass,End of Day 1,Pass,NaN,Pass,NaN,Pass,NaN,Start of Day 2,schedule_A,schedule_A,21,13,1,Screen 1,Zone1,continue_button,804.000000000015,NaN,NaN,,NaN,0,1,0,NaN,NaN,NaN,NaN,NaN,trial_right,yellowBox.png,redBox.png,yellowBox.png,al1_con.png,41,20,NaN,NaN,0.15,0.85,0,1,0,1,Volatile,Stable,3.521,1.723,1.37,1.655,expert
100,1673464209731,11/01/2023 19:10:09,1673464209711,0,11/01/2023 19:10:09,111483,6,task-v1fs,repeat-u7ds#1->-repeat-l3h2#1->-repeat-pi7a#1->-repeat-apgu#1,26330620,BLIND,7766470,NaN,complete,NaN,63bdb974d4e9ba2e6133b400,computer,Desktop or Laptop,Mac OS 10.15.7,Safari 15.6.1,1920x1080,1679x1017,Start of Day 2,SLS,90,B,NaN,NaN,NaN,Pass,End of Day 1,Pass,NaN,Pass,NaN,Pass,NaN,Start of Day 2,schedule_A,schedule_A,21,13,2,individual,Zone4,timelimit_screen,1002,NaN,NaN,,NaN,0,1,0,NaN,NaN,1,NaN,NaN,trial_right,yellowBox.png,redBox.png,yellowBox.png,al1_con.png,41,20,NaN,NaN,0.15,0.85,0,1,0,1,Volatile,Stable,3.521,1.723,1.37,1.655,expert
101,1673464210603,11/01/2023 19:10:10,1673464210577,0,11/01/2023 19:10:10,111483,6,task-v1fs,repeat-u7ds#1->-repeat-l3h2#1->-repeat-pi7a#1->-repeat-apgu#1,26330620,BLIND,7766470,NaN,complete,NaN,63bdb974d4e9ba2e6133b400,computer,Desktop or Laptop,Mac OS 10.15.7,Safari 15.6.1,1920x1080,1679x1017,Start of Day 2,SLS,90,B,NaN,NaN,NaN,Pass,End of Day 1,Pass,NaN,Pass,NaN,Pass,NaN,Start of Day 2,schedule_A,schedule_A,21,13,3,offer,Zone3,response_button_image,858,NaN,NaN,yellowBox.png,1,1,0,0,NaN,NaN,NaN,NaN,NaN,trial_right,yellowBox.png,redBox.png,yellowBox.png,al1_con.png,41,20,NaN,NaN,0.15,0.85,0,1,0,1,Volatile,Stable,3.521,1.723,1.37,1.655,expert
102,1673464212589,11/01/2023 19:10:12,1673464212564,0,11/01/2023 19:10:12,111483,6,task-v1fs,repeat-u7ds#1->-repeat-l3h2#1->-repeat-pi7a#1->-repeat-apgu#1,26330620,BLIND,7766470,NaN,complete,NaN,63bdb974d4e9ba2e6133b400,computer,Desktop or Laptop,Mac OS 10.15.7,Safari 15.6.1,1920x1080,1679x1017,Start of Day 2,SLS,90,B,NaN,NaN,NaN,Pass,End of Day 1,Pass,NaN,Pass,NaN,Pass,NaN,Start of Day 2,schedule_A,schedule_A,21,13,5,feedback_r,Zone7,timelimit_screen,2002,NaN,NaN,,NaN,0,1,0,NaN,NaN,1,NaN,NaN,trial_right,yellowBox.png,redBox.png,yellowBox.png,al1_con.png,41,20,NaN,NaN,0.15,0.85,0,1,0,1,Volatile,Stable,3.521,1.723,1.37,1.655,expert
103,1673464212738,11/01/2023 19:10:12,1673464212714,0,11/01/2023 19:10:12,111483,6,task-v1fs,repeat-u7ds#1->-repeat-l3h2#1->-repeat-pi7a#1->-repeat-apgu#1,26330620,BLIND,7766470,NaN,complete,NaN,63bdb974d4e9ba2e6133b400,computer,Desktop or Laptop,Mac OS 10.15.7,Safari 15.6.1,1920x1080,1679x1017,Start of Day 2,SLS,90,B,NaN,NaN,NaN,Pass,End of Day 1,Pass,NaN,Pass,NaN,Pass,NaN,Start of Day 2,schedule_A,schedule_A,21,13,6,end,Zone1,timelimit_screen,150,NaN,NaN,,NaN,0,1,0,NaN,NaN,1,NaN,NaN,trial_right,yellowBox.png,redBox.png,yellowBox.png,al1_con.png,41,20,NaN,NaN,0.15,0.85,0,1,0,1,Volatile,Stable,3.521,1.723,1.37,1.655,expert
104,1673464213574,11/01/2023 19:10:13,1673464213558,0,11/01/2023 19:10:13,111483,6,task-v1fs,repeat-u7ds#1->-repeat-l3h2#1->-repeat-pi7a#1->-repeat-apgu#1,26330620,BLIND,7766470,NaN,complete,NaN,63bdb974d4e9ba2e6133b400,computer,Desktop or Laptop,Mac OS 10.15.7,Safari 15.6.1,1920x1080,1679x1017,Start of Day 2,SLS,90,B,NaN,NaN,NaN,Pass,End of Day 1,Pass,NaN,Pass,NaN,Pass,NaN,Start of Day 2,schedule_A,schedule_A,22,14,1,Screen 1,Zone1,continue_button,830,NaN,NaN,,NaN,0,1,0,NaN,NaN,NaN,NaN,NaN,trial_right,redBox.png,yellowBox.png,redBox.png,al1_con.png,42,21,NaN,NaN,0.85,0.85,1,1,1,0,Stable,Stable,2.336,0.651,1.685,2.882,expert
105,1673464214577,11/01/2023 19:10:14,1673464214549,0,11/01/2023 19:10:14,111483,6,task-v1fs,repeat-u7ds#1->-repeat-l3h2#1->-repeat-pi7a#1->-repeat-apgu#1,26330620,BLIND,7766470,NaN,complete,NaN,63bdb974d4e9ba2e6133b400,computer,Desktop or Laptop,Mac OS 10.15.7,Safari 15.6.1,1920x1080,1679x1017,Start of Day 2,SLS,90,B,NaN,NaN,NaN,Pass,End of Day 1,Pass,NaN,Pass,NaN,Pass,NaN,Start of Day 2,schedule_A,schedule_A,22,14,2,individual,Zone4,timelimit_screen,1001,NaN,NaN,,NaN,0,1,0,NaN,NaN,1,NaN,NaN,trial_right,redBox.png,yellowBox.png,redBox.png,al1_con.png,42,21,NaN,NaN,0.85,0.85,1,1,1,0,Stable,Stable,2.336,0.651,1.685,2.882,expert
106,1673464215399,11/01/2023 19:10:15,1673464215381,0,11/01/2023 19:10:15,111483,6,task-v1fs,repeat-u7ds#1->-repeat-l3h2#1->-repeat-pi7a#1->-repeat-apgu#1,26330620,BLIND,7766470,NaN,complete,NaN,63bdb974d4e9ba2e6133b400,computer,Desktop or Laptop,Mac OS 10.15.7,Safari 15.6.1,1920x1080,1679x1017,Start of Day 2,SLS,90,B,NaN,NaN,NaN,Pass,End of Day 1,Pass,NaN,Pass,NaN,Pass,NaN,Start of Day 2,schedule_A,schedule_A,22,14,3,offer,Zone3,response_button_image,822.999999999985,NaN,NaN,redBox.png,1,1,0,0,NaN,NaN,NaN,NaN,NaN,trial_right,redBox.png,yellowBox.png,redBox.png,al1_con.png,42,21,NaN,NaN,0.85,0.85,1,1,1,0,Stable,Stable,2.336,0.651,1.685,2.882,expert
107,1673464217390,11/01/2023 19:10:17,1673464217368,0,11/01/2023 19:10:17,111483,6,task-v1fs,repeat-u7ds#1->-repeat-l3h2#1->-repeat-pi7a#1->-repeat-apgu#1,26330620,BLIND,7766470,NaN,complete,NaN,63bdb974d4e9ba2e6133b400,computer,Desktop or Laptop,Mac OS 10.15.7,Safari 15.6.1,1920x1080,1679x1017,Start of Day 2,SLS,90,B,NaN,NaN,NaN,Pass,End of Day 1,Pass,NaN,Pass,NaN,Pass,NaN,Start of Day 2,schedule_A,schedule_A,22,14,5,feedback_r,Zone7,timelimit_screen,2003,NaN,NaN,,NaN,0,1,0,NaN,NaN,1,NaN,NaN,trial_right,redBox.png,yellowBox.png,redBox.png,al1_con.png,42,21,NaN,NaN,0.85,0.85,1,1,1,0,Stable,Stable,2.336,0.651,1.685,2.882,expert
108,1673464217540,11/01/2023 19:10:17,1673464217519,0,11/01/2023 19:10:17,111483,6,task-v1fs,repeat-u7ds#1->-repeat-l3h2#1->-repeat-pi7a#1->-repeat-apgu#1,26330620,BLIND,7766470,NaN,complete,NaN,63bdb974d4e9ba2e6133b400,computer,Desktop or Laptop,Mac OS 10.15.7,Safari 15.6.1,1920x1080,1679x1017,Start of Day 2,SLS,90,B,NaN,NaN,NaN,Pass,End of Day 1,Pass,NaN,Pass,NaN,Pass,NaN,Start of Day 2,schedule_A,schedule_A,22,14,6,end,Zone1,timelimit_screen,151,NaN,NaN,,NaN,0,1,0,NaN,NaN,1,NaN,NaN,trial_right,redBox.png,yellowBox.png,redBox.png,al1_con.png,42,21,NaN,NaN,0.85,0.85,1,1,1,0,Stable,Stable,2.336,0.651,1.685,2.882,expert
109,1673464218201,11/01/2023 19:10:18,1673464218182,0,11/01/2023 19:10:18,111483,6,task-v1fs,repeat-u7ds#1->-repeat-l3h2#1->-repeat-pi7a#1->-repeat-apgu#1,26330620,BLIND,7766470,NaN,complete,NaN,63bdb974d4e9ba2e6133b400,computer,Desktop or Laptop,Mac OS 10.15.7,Safari 15.6.1,1920x1080,1679x1017,Start of Day 2,SLS,90,B,NaN,NaN,NaN,Pass,End of Day 1,Pass,NaN,Pass,NaN,Pass,NaN,Start of Day 2,schedule_A,schedule_A,23,15,1,Screen 1,Zone1,continue_button,649.000000000015,NaN,NaN,,NaN,0,1,0,NaN,NaN,NaN,NaN,NaN,trial_right,redBox.png,yellowBox.png,redBox.png,al1_con.png,43,22,NaN,NaN,0.85,0.85,1,1,1,0,Stable,Stable,3.622,1.319,1.193,1.067,expert
110,1673464219201,11/01/2023 19:10:19,1673464219171,0,11/01/2023 19:10:19,111483,6,task-v1fs,repeat-u7ds#1->-repeat-l3h2#1->-repeat-pi7a#1->-repeat-apgu#1,26330620,BLIND,7766470,NaN,complete,NaN,63bdb974d4e9ba2e6133b400,computer,Desktop or Laptop,Mac OS 10.15.7,Safari 15.6.1,1920x1080,1679x1017,Start of Day 2,SLS,90,B,NaN,NaN,NaN,Pass,End of Day 1,Pass,NaN,Pass,NaN,Pass,NaN,Start of Day 2,schedule_A,schedule_A,23,15,2,individual,Zone4,timelimit_screen,1002,NaN,NaN,,NaN,0,1,0,NaN,NaN,1,NaN,NaN,trial_right,redBox.png,yellowBox.png,redBox.png,al1_con.png,43,22,NaN,NaN,0.85,0.85,1,1,1,0,Stable,Stable,3.622,1.319,1.193,1.067,expert
111,1673464220528,11/01/2023 19:10:20,1673464220500,0,11/01/2023 19:10:20,111483,6,task-v1fs,repeat-u7ds#1->-repeat-l3h2#1->-repeat-pi7a#1->-repeat-apgu#1,26330620,BLIND,7766470,NaN,complete,NaN,63bdb974d4e9ba2e6133b400,computer,Desktop or Laptop,Mac OS 10.15.7,Safari 15.6.1,1920x1080,1679x1017,Start of Day 2,SLS,90,B,NaN,NaN,NaN,Pass,End of Day 1,Pass,NaN,Pass,NaN,Pass,NaN,Start of Day 2,schedule_A,schedule_A,23,15,3,offer,Zone3,response_button_image,1320.99999999999,NaN,NaN,redBox.png,1,1,0,0,NaN,NaN,NaN,NaN,NaN,trial_right,redBox.png,yellowBox.png,redBox.png,al1_con.png,43,22,NaN,NaN,0.85,0.85,1,1,1,0,Stable,Stable,3.622,1.319,1.193,1.067,expert
112,1673464222511,11/01/2023 19:10:22,1673464222491,0,11/01/2023 19:10:22,111483,6,task-v1fs,repeat-u7ds#1->-repeat-l3h2#1->-repeat-pi7a#1->-repeat-apgu#1,26330620,BLIND,7766470,NaN,complete,NaN,63bdb974d4e9ba2e6133b400,computer,Desktop or Laptop,Mac OS 10.15.7,Safari 15.6.1,1920x1080,1679x1017,Start of Day 2,SLS,90,B,NaN,NaN,NaN,Pass,End of Day 1,Pass,NaN,Pass,NaN,Pass,NaN,Start of Day 2,schedule_A,schedule_A,23,15,5,feedback_r,Zone7,timelimit_screen,2003,NaN,NaN,,NaN,0,1,0,NaN,NaN,1,NaN,NaN,trial_right,redBox.png,yellowBox.png,redBox.png,al1_con.png,43,22,NaN,NaN,0.85,0.85,1,1,1,0,Stable,Stable,3.622,1.319,1.193,1.067,expert
113,1673464222661,11/01/2023 19:10:22,1673464222641,0,11/01/2023 19:10:22,111483,6,task-v1fs,repeat-u7ds#1->-repeat-l3h2#1->-repeat-pi7a#1->-repeat-apgu#1,26330620,BLIND,7766470,NaN,complete,NaN,63bdb974d4e9ba2e6133b400,computer,Desktop or Laptop,Mac OS 10.15.7,Safari 15.6.1,1920x1080,1679x1017,Start of Day 2,SLS,90,B,NaN,NaN,NaN,Pass,End of Day 1,Pass,NaN,Pass,NaN,Pass,NaN,Start of Day 2,schedule_A,schedule_A,23,15,6,end,Zone1,timelimit_screen,150,NaN,NaN,,NaN,0,1,0,NaN,NaN,1,NaN,NaN,trial_right,redBox.png,yellowBox.png,redBox.png,al1_con.png,43,22,NaN,NaN,0.85,0.85,1,1,1,0,Stable,Stable,3.622,1.319,1.193,1.067,expert
114,1673464223221,11/01/2023 19:10:23,1673464223200,0,11/01/2023 19:10:23,111483,6,task-v1fs,repeat-u7ds#1->-repeat-l3h2#1->-repeat-pi7a#1->-repeat-apgu#1,26330620,BLIND,7766470,NaN,complete,NaN,63bdb974d4e9ba2e6133b400,computer,Desktop or Laptop,Mac OS 10.15.7,Safari 15.6.1,1920x1080,1679x1017,Start of Day 2,SLS,90,B,NaN,NaN,NaN,Pass,End of Day 1,Pass,NaN,Pass,NaN,Pass,NaN,Start of Day 2,schedule_A,schedule_A,24,8,1,Screen 1,Zone1,continue_button,545.000000000015,NaN,NaN,,NaN,0,1,0,NaN,NaN,NaN,NaN,NaN,trial_left,redBox.png,redBox.png,yellowBox.png,al1_con.png,44,23,NaN,NaN,0.85,0.85,1,1,1,1,Stable,Stable,1.731,0.853,2,1.202,expert
115,1673464224207,11/01/2023 19:10:24,1673464224193,0,11/01/2023 19:10:24,111483,6,task-v1fs,repeat-u7ds#1->-repeat-l3h2#1->-repeat-pi7a#1->-repeat-apgu#1,26330620,BLIND,7766470,NaN,complete,NaN,63bdb974d4e9ba2e6133b400,computer,Desktop or Laptop,Mac OS 10.15.7,Safari 15.6.1,1920x1080,1679x1017,Start of Day 2,SLS,90,B,NaN,NaN,NaN,Pass,End of Day 1,Pass,NaN,Pass,NaN,Pass,NaN,Start of Day 2,schedule_A,schedule_A,24,8,2,individual,Zone4,timelimit_screen,1001,NaN,NaN,,NaN,0,1,0,NaN,NaN,1,NaN,NaN,trial_left,redBox.png,redBox.png,yellowBox.png,al1_con.png,44,23,NaN,NaN,0.85,0.85,1,1,1,1,Stable,Stable,1.731,0.853,2,1.202,expert
116,1673464224896,11/01/2023 19:10:24,1673464224875,0,11/01/2023 19:10:24,111483,6,task-v1fs,repeat-u7ds#1->-repeat-l3h2#1->-repeat-pi7a#1->-repeat-apgu#1,26330620,BLIND,7766470,NaN,complete,NaN,63bdb974d4e9ba2e6133b400,computer,Desktop or Laptop,Mac OS 10.15.7,Safari 15.6.1,1920x1080,1679x1017,Start of Day 2,SLS,90,B,NaN,NaN,NaN,Pass,End of Day 1,Pass,NaN,Pass,NaN,Pass,NaN,Start of Day 2,schedule_A,schedule_A,24,8,3,offer,Zone2,response_button_image,675,NaN,NaN,redBox.png,1,1,0,0,NaN,NaN,NaN,NaN,NaN,trial_left,redBox.png,redBox.png,yellowBox.png,al1_con.png,44,23,NaN,NaN,0.85,0.85,1,1,1,1,Stable,Stable,1.731,0.853,2,1.202,expert
117,1673464226927,11/01/2023 19:10:26,1673464226862,0,11/01/2023 19:10:26,111483,6,task-v1fs,repeat-u7ds#1->-repeat-l3h2#1->-repeat-pi7a#1->-repeat-apgu#1,26330620,BLIND,7766470,NaN,complete,NaN,63bdb974d4e9ba2e6133b400,computer,Desktop or Laptop,Mac OS 10.15.7,Safari 15.6.1,1920x1080,1679x1017,Start of Day 2,SLS,90,B,NaN,NaN,NaN,Pass,End of Day 1,Pass,NaN,Pass,NaN,Pass,NaN,Start of Day 2,schedule_A,schedule_A,24,8,4,feedback_l,Zone7,timelimit_screen,2002,NaN,NaN,,NaN,0,1,0,NaN,NaN,1,NaN,NaN,trial_left,redBox.png,redBox.png,yellowBox.png,al1_con.png,44,23,NaN,NaN,0.85,0.85,1,1,1,1,Stable,Stable,1.731,0.853,2,1.202,expert
118,1673464227032,11/01/2023 19:10:27,1673464227011,0,11/01/2023 19:10:27,111483,6,task-v1fs,repeat-u7ds#1->-repeat-l3h2#1->-repeat-pi7a#1->-repeat-apgu#1,26330620,BLIND,7766470,NaN,complete,NaN,63bdb974d4e9ba2e6133b400,computer,Desktop or Laptop,Mac OS 10.15.7,Safari 15.6.1,1920x1080,1679x1017,Start of Day 2,SLS,90,B,NaN,NaN,NaN,Pass,End of Day 1,Pass,NaN,Pass,NaN,Pass,NaN,Start of Day 2,schedule_A,schedule_A,24,8,6,end,Zone1,timelimit_screen,150,NaN,NaN,,NaN,0,1,0,NaN,NaN,1,NaN,NaN,trial_left,redBox.png,redBox.png,yellowBox.png,al1_con.png,44,23,NaN,NaN,0.85,0.85,1,1,1,1,Stable,Stable,1.731,0.853,2,1.202,expert
119,1673464227641,11/01/2023 19:10:27,1673464227621,0,11/01/2023 19:10:27,111483,6,task-v1fs,repeat-u7ds#1->-repeat-l3h2#1->-repeat-pi7a#1->-repeat-apgu#1,26330620,BLIND,7766470,NaN,complete,NaN,63bdb974d4e9ba2e6133b400,computer,Desktop or Laptop,Mac OS 10.15.7,Safari 15.6.1,1920x1080,1679x1017,Start of Day 2,SLS,90,B,NaN,NaN,NaN,Pass,End of Day 1,Pass,NaN,Pass,NaN,Pass,NaN,Start of Day 2,schedule_A,schedule_A,25,16,1,Screen 1,Zone1,continue_button,591,NaN,NaN,,NaN,0,1,0,NaN,NaN,NaN,NaN,NaN,trial_right,redBox.png,yellowBox.png,redBox.png,al1_con.png,45,24,NaN,NaN,0.85,0.85,1,1,1,0,Stable,Stable,2.109,1.798,1.508,2.782,expert
120,1673464228633,11/01/2023 19:10:28,1673464228614,0,11/01/2023 19:10:28,111483,6,task-v1fs,repeat-u7ds#1->-repeat-l3h2#1->-repeat-pi7a#1->-repeat-apgu#1,26330620,BLIND,7766470,NaN,complete,NaN,63bdb974d4e9ba2e6133b400,computer,Desktop or Laptop,Mac OS 10.15.7,Safari 15.6.1,1920x1080,1679x1017,Start of Day 2,SLS,90,B,NaN,NaN,NaN,Pass,End of Day 1,Pass,NaN,Pass,NaN,Pass,NaN,Start of Day 2,schedule_A,schedule_A,25,16,2,individual,Zone4,timelimit_screen,1001,NaN,NaN,,NaN,0,1,0,NaN,NaN,1,NaN,NaN,trial_right,redBox.png,yellowBox.png,redBox.png,al1_con.png,45,24,NaN,NaN,0.85,0.85,1,1,1,0,Stable,Stable,2.109,1.798,1.508,2.782,expert
121,1673464229843,11/01/2023 19:10:29,1673464229815,0,11/01/2023 19:10:29,111483,6,task-v1fs,repeat-u7ds#1->-repeat-l3h2#1->-repeat-pi7a#1->-repeat-apgu#1,26330620,BLIND,7766470,NaN,complete,NaN,63bdb974d4e9ba2e6133b400,computer,Desktop or Laptop,Mac OS 10.15.7,Safari 15.6.1,1920x1080,1679x1017,Start of Day 2,SLS,90,B,NaN,NaN,NaN,Pass,End of Day 1,Pass,NaN,Pass,NaN,Pass,NaN,Start of Day 2,schedule_A,schedule_A,25,16,3,offer,Zone3,response_button_image,1192,NaN,NaN,redBox.png,1,1,0,0,NaN,NaN,NaN,NaN,NaN,trial_right,redBox.png,yellowBox.png,redBox.png,al1_con.png,45,24,NaN,NaN,0.85,0.85,1,1,1,0,Stable,Stable,2.109,1.798,1.508,2.782,expert
122,1673464231822,11/01/2023 19:10:31,1673464231801,0,11/01/2023 19:10:31,111483,6,task-v1fs,repeat-u7ds#1->-repeat-l3h2#1->-repeat-pi7a#1->-repeat-apgu#1,26330620,BLIND,7766470,NaN,complete,NaN,63bdb974d4e9ba2e6133b400,computer,Desktop or Laptop,Mac OS 10.15.7,Safari 15.6.1,1920x1080,1679x1017,Start of Day 2,SLS,90,B,NaN,NaN,NaN,Pass,End of Day 1,Pass,NaN,Pass,NaN,Pass,NaN,Start of Day 2,schedule_A,schedule_A,25,16,5,feedback_r,Zone7,timelimit_screen,2002,NaN,NaN,,NaN,0,1,0,NaN,NaN,1,NaN,NaN,trial_right,redBox.png,yellowBox.png,redBox.png,al1_con.png,45,24,NaN,NaN,0.85,0.85,1,1,1,0,Stable,Stable,2.109,1.798,1.508,2.782,expert
123,1673464231972,11/01/2023 19:10:31,1673464231950,0,11/01/2023 19:10:31,111483,6,task-v1fs,repeat-u7ds#1->-repeat-l3h2#1->-repeat-pi7a#1->-repeat-apgu#1,26330620,BLIND,7766470,NaN,complete,NaN,63bdb974d4e9ba2e6133b400,computer,Desktop or Laptop,Mac OS 10.15.7,Safari 15.6.1,1920x1080,1679x1017,Start of Day 2,SLS,90,B,NaN,NaN,NaN,Pass,End of Day 1,Pass,NaN,Pass,NaN,Pass,NaN,Start of Day 2,schedule_A,schedule_A,25,16,6,end,Zone1,timelimit_screen,150,NaN,NaN,,NaN,0,1,0,NaN,NaN,1,NaN,NaN,trial_right,redBox.png,yellowBox.png,redBox.png,al1_con.png,45,24,NaN,NaN,0.85,0.85,1,1,1,0,Stable,Stable,2.109,1.798,1.508,2.782,expert
124,1673464232558,11/01/2023 19:10:32,1673464232526,0,11/01/2023 19:10:32,111483,6,task-v1fs,repeat-u7ds#1->-repeat-l3h2#1->-repeat-pi7a#1->-repeat-apgu#1,26330620,BLIND,7766470,NaN,complete,NaN,63bdb974d4e9ba2e6133b400,computer,Desktop or Laptop,Mac OS 10.15.7,Safari 15.6.1,1920x1080,1679x1017,Start of Day 2,SLS,90,B,NaN,NaN,NaN,Pass,End of Day 1,Pass,NaN,Pass,NaN,Pass,NaN,Start of Day 2,schedule_A,schedule_A,26,9,1,Screen 1,Zone1,continue_button,561,NaN,NaN,,NaN,0,1,0,NaN,NaN,NaN,NaN,NaN,trial_left,redBox.png,redBox.png,yellowBox.png,al1_con.png,46,25,NaN,NaN,0.85,0.85,1,1,1,1,Stable,Stable,2.916,1.294,1.962,2.361,expert
125,1673464233537,11/01/2023 19:10:33,1673464233519,0,11/01/2023 19:10:33,111483,6,task-v1fs,repeat-u7ds#1->-repeat-l3h2#1->-repeat-pi7a#1->-repeat-apgu#1,26330620,BLIND,7766470,NaN,complete,NaN,63bdb974d4e9ba2e6133b400,computer,Desktop or Laptop,Mac OS 10.15.7,Safari 15.6.1,1920x1080,1679x1017,Start of Day 2,SLS,90,B,NaN,NaN,NaN,Pass,End of Day 1,Pass,NaN,Pass,NaN,Pass,NaN,Start of Day 2,schedule_A,schedule_A,26,9,2,individual,Zone4,timelimit_screen,1001,NaN,NaN,,NaN,0,1,0,NaN,NaN,1,NaN,NaN,trial_left,redBox.png,redBox.png,yellowBox.png,al1_con.png,46,25,NaN,NaN,0.85,0.85,1,1,1,1,Stable,Stable,2.916,1.294,1.962,2.361,expert
126,1673464234465,11/01/2023 19:10:34,1673464234450,0,11/01/2023 19:10:34,111483,6,task-v1fs,repeat-u7ds#1->-repeat-l3h2#1->-repeat-pi7a#1->-repeat-apgu#1,26330620,BLIND,7766470,NaN,complete,NaN,63bdb974d4e9ba2e6133b400,computer,Desktop or Laptop,Mac OS 10.15.7,Safari 15.6.1,1920x1080,1679x1017,Start of Day 2,SLS,90,B,NaN,NaN,NaN,Pass,End of Day 1,Pass,NaN,Pass,NaN,Pass,NaN,Start of Day 2,schedule_A,schedule_A,26,9,3,offer,Zone2,response_button_image,922,NaN,NaN,redBox.png,1,1,0,0,NaN,NaN,NaN,NaN,NaN,trial_left,redBox.png,redBox.png,yellowBox.png,al1_con.png,46,25,NaN,NaN,0.85,0.85,1,1,1,1,Stable,Stable,2.916,1.294,1.962,2.361,expert
127,1673464236465,11/01/2023 19:10:36,1673464236439,0,11/01/2023 19:10:36,111483,6,task-v1fs,repeat-u7ds#1->-repeat-l3h2#1->-repeat-pi7a#1->-repeat-apgu#1,26330620,BLIND,7766470,NaN,complete,NaN,63bdb974d4e9ba2e6133b400,computer,Desktop or Laptop,Mac OS 10.15.7,Safari 15.6.1,1920x1080,1679x1017,Start of Day 2,SLS,90,B,NaN,NaN,NaN,Pass,End of Day 1,Pass,NaN,Pass,NaN,Pass,NaN,Start of Day 2,schedule_A,schedule_A,26,9,4,feedback_l,Zone7,timelimit_screen,2003,NaN,NaN,,NaN,0,1,0,NaN,NaN,1,NaN,NaN,trial_left,redBox.png,redBox.png,yellowBox.png,al1_con.png,46,25,NaN,NaN,0.85,0.85,1,1,1,1,Stable,Stable,2.916,1.294,1.962,2.361,expert
128,1673464236606,11/01/2023 19:10:36,1673464236588,0,11/01/2023 19:10:36,111483,6,task-v1fs,repeat-u7ds#1->-repeat-l3h2#1->-repeat-pi7a#1->-repeat-apgu#1,26330620,BLIND,7766470,NaN,complete,NaN,63bdb974d4e9ba2e6133b400,computer,Desktop or Laptop,Mac OS 10.15.7,Safari 15.6.1,1920x1080,1679x1017,Start of Day 2,SLS,90,B,NaN,NaN,NaN,Pass,End of Day 1,Pass,NaN,Pass,NaN,Pass,NaN,Start of Day 2,schedule_A,schedule_A,26,9,6,end,Zone1,timelimit_screen,149,NaN,NaN,,NaN,0,1,0,NaN,NaN,1,NaN,NaN,trial_left,redBox.png,redBox.png,yellowBox.png,al1_con.png,46,25,NaN,NaN,0.85,0.85,1,1,1,1,Stable,Stable,2.916,1.294,1.962,2.361,expert
129,1673464237310,11/01/2023 19:10:37,1673464237228,0,11/01/2023 19:10:37,111483,6,task-v1fs,repeat-u7ds#1->-repeat-l3h2#1->-repeat-pi7a#1->-repeat-apgu#1,26330620,BLIND,7766470,NaN,complete,NaN,63bdb974d4e9ba2e6133b400,computer,Desktop or Laptop,Mac OS 10.15.7,Safari 15.6.1,1920x1080,1679x1017,Start of Day 2,SLS,90,B,NaN,NaN,NaN,Pass,End of Day 1,Pass,NaN,Pass,NaN,Pass,NaN,Start of Day 2,schedule_A,schedule_A,27,17,1,Screen 1,Zone1,continue_button,626,NaN,NaN,,NaN,0,1,0,NaN,NaN,NaN,NaN,NaN,trial_right,redBox.png,yellowBox.png,redBox.png,al1_con.png,47,26,NaN,NaN,0.85,0.85,1,1,1,0,Stable,Stable,2.487,1.697,1.13,1.286,expert
130,1673464238244,11/01/2023 19:10:38,1673464238224,0,11/01/2023 19:10:38,111483,6,task-v1fs,repeat-u7ds#1->-repeat-l3h2#1->-repeat-pi7a#1->-repeat-apgu#1,26330620,BLIND,7766470,NaN,complete,NaN,63bdb974d4e9ba2e6133b400,computer,Desktop or Laptop,Mac OS 10.15.7,Safari 15.6.1,1920x1080,1679x1017,Start of Day 2,SLS,90,B,NaN,NaN,NaN,Pass,End of Day 1,Pass,NaN,Pass,NaN,Pass,NaN,Start of Day 2,schedule_A,schedule_A,27,17,2,individual,Zone4,timelimit_screen,1002,NaN,NaN,,NaN,0,1,0,NaN,NaN,1,NaN,NaN,trial_right,redBox.png,yellowBox.png,redBox.png,al1_con.png,47,26,NaN,NaN,0.85,0.85,1,1,1,0,Stable,Stable,2.487,1.697,1.13,1.286,expert
131,1673464239227,11/01/2023 19:10:39,1673464239208,0,11/01/2023 19:10:39,111483,6,task-v1fs,repeat-u7ds#1->-repeat-l3h2#1->-repeat-pi7a#1->-repeat-apgu#1,26330620,BLIND,7766470,NaN,complete,NaN,63bdb974d4e9ba2e6133b400,computer,Desktop or Laptop,Mac OS 10.15.7,Safari 15.6.1,1920x1080,1679x1017,Start of Day 2,SLS,90,B,NaN,NaN,NaN,Pass,End of Day 1,Pass,NaN,Pass,NaN,Pass,NaN,Start of Day 2,schedule_A,schedule_A,27,17,3,offer,Zone3,response_button_image,976,NaN,NaN,redBox.png,1,1,0,0,NaN,NaN,NaN,NaN,NaN,trial_right,redBox.png,yellowBox.png,redBox.png,al1_con.png,47,26,NaN,NaN,0.85,0.85,1,1,1,0,Stable,Stable,2.487,1.697,1.13,1.286,expert
132,1673464241227,11/01/2023 19:10:41,1673464241210,0,11/01/2023 19:10:41,111483,6,task-v1fs,repeat-u7ds#1->-repeat-l3h2#1->-repeat-pi7a#1->-repeat-apgu#1,26330620,BLIND,7766470,NaN,complete,NaN,63bdb974d4e9ba2e6133b400,computer,Desktop or Laptop,Mac OS 10.15.7,Safari 15.6.1,1920x1080,1679x1017,Start of Day 2,SLS,90,B,NaN,NaN,NaN,Pass,End of Day 1,Pass,NaN,Pass,NaN,Pass,NaN,Start of Day 2,schedule_A,schedule_A,27,17,5,feedback_r,Zone7,timelimit_screen,2002,NaN,NaN,,NaN,0,1,0,NaN,NaN,1,NaN,NaN,trial_right,redBox.png,yellowBox.png,redBox.png,al1_con.png,47,26,NaN,NaN,0.85,0.85,1,1,1,0,Stable,Stable,2.487,1.697,1.13,1.286,expert
133,1673464241384,11/01/2023 19:10:41,1673464241361,0,11/01/2023 19:10:41,111483,6,task-v1fs,repeat-u7ds#1->-repeat-l3h2#1->-repeat-pi7a#1->-repeat-apgu#1,26330620,BLIND,7766470,NaN,complete,NaN,63bdb974d4e9ba2e6133b400,computer,Desktop or Laptop,Mac OS 10.15.7,Safari 15.6.1,1920x1080,1679x1017,Start of Day 2,SLS,90,B,NaN,NaN,NaN,Pass,End of Day 1,Pass,NaN,Pass,NaN,Pass,NaN,Start of Day 2,schedule_A,schedule_A,27,17,6,end,Zone1,timelimit_screen,152,NaN,NaN,,NaN,0,1,0,NaN,NaN,1,NaN,NaN,trial_right,redBox.png,yellowBox.png,redBox.png,al1_con.png,47,26,NaN,NaN,0.85,0.85,1,1,1,0,Stable,Stable,2.487,1.697,1.13,1.286,expert
134,1673464241945,11/01/2023 19:10:41,1673464241920,0,11/01/2023 19:10:41,111483,6,task-v1fs,repeat-u7ds#1->-repeat-l3h2#1->-repeat-pi7a#1->-repeat-apgu#1,26330620,BLIND,7766470,NaN,complete,NaN,63bdb974d4e9ba2e6133b400,computer,Desktop or Laptop,Mac OS 10.15.7,Safari 15.6.1,1920x1080,1679x1017,Start of Day 2,SLS,90,B,NaN,NaN,NaN,Pass,End of Day 1,Pass,NaN,Pass,NaN,Pass,NaN,Start of Day 2,schedule_A,schedule_A,28,10,1,Screen 1,Zone1,continue_button,545,NaN,NaN,,NaN,0,1,0,NaN,NaN,NaN,NaN,NaN,trial_left,redBox.png,redBox.png,yellowBox.png,al1_con.png,48,27,NaN,NaN,0.85,0.85,1,1,1,1,Stable,Stable,3.824,1.634,0.992,2.244,expert
135,1673464242928,11/01/2023 19:10:42,1673464242912,0,11/01/2023 19:10:42,111483,6,task-v1fs,repeat-u7ds#1->-repeat-l3h2#1->-repeat-pi7a#1->-repeat-apgu#1,26330620,BLIND,7766470,NaN,complete,NaN,63bdb974d4e9ba2e6133b400,computer,Desktop or Laptop,Mac OS 10.15.7,Safari 15.6.1,1920x1080,1679x1017,Start of Day 2,SLS,90,B,NaN,NaN,NaN,Pass,End of Day 1,Pass,NaN,Pass,NaN,Pass,NaN,Start of Day 2,schedule_A,schedule_A,28,10,2,individual,Zone4,timelimit_screen,1001,NaN,NaN,,NaN,0,1,0,NaN,NaN,1,NaN,NaN,trial_left,redBox.png,redBox.png,yellowBox.png,al1_con.png,48,27,NaN,NaN,0.85,0.85,1,1,1,1,Stable,Stable,3.824,1.634,0.992,2.244,expert
136,1673464243941,11/01/2023 19:10:43,1673464243922,0,11/01/2023 19:10:43,111483,6,task-v1fs,repeat-u7ds#1->-repeat-l3h2#1->-repeat-pi7a#1->-repeat-apgu#1,26330620,BLIND,7766470,NaN,complete,NaN,63bdb974d4e9ba2e6133b400,computer,Desktop or Laptop,Mac OS 10.15.7,Safari 15.6.1,1920x1080,1679x1017,Start of Day 2,SLS,90,B,NaN,NaN,NaN,Pass,End of Day 1,Pass,NaN,Pass,NaN,Pass,NaN,Start of Day 2,schedule_A,schedule_A,28,10,3,offer,Zone2,response_button_image,1002,NaN,NaN,redBox.png,1,1,0,0,NaN,NaN,NaN,NaN,NaN,trial_left,redBox.png,redBox.png,yellowBox.png,al1_con.png,48,27,NaN,NaN,0.85,0.85,1,1,1,1,Stable,Stable,3.824,1.634,0.992,2.244,expert
137,1673464245952,11/01/2023 19:10:45,1673464245916,0,11/01/2023 19:10:45,111483,6,task-v1fs,repeat-u7ds#1->-repeat-l3h2#1->-repeat-pi7a#1->-repeat-apgu#1,26330620,BLIND,7766470,NaN,complete,NaN,63bdb974d4e9ba2e6133b400,computer,Desktop or Laptop,Mac OS 10.15.7,Safari 15.6.1,1920x1080,1679x1017,Start of Day 2,SLS,90,B,NaN,NaN,NaN,Pass,End of Day 1,Pass,NaN,Pass,NaN,Pass,NaN,Start of Day 2,schedule_A,schedule_A,28,10,4,feedback_l,Zone7,timelimit_screen,2003,NaN,NaN,,NaN,0,1,0,NaN,NaN,1,NaN,NaN,trial_left,redBox.png,redBox.png,yellowBox.png,al1_con.png,48,27,NaN,NaN,0.85,0.85,1,1,1,1,Stable,Stable,3.824,1.634,0.992,2.244,expert
138,1673464246085,11/01/2023 19:10:46,1673464246066,0,11/01/2023 19:10:46,111483,6,task-v1fs,repeat-u7ds#1->-repeat-l3h2#1->-repeat-pi7a#1->-repeat-apgu#1,26330620,BLIND,7766470,NaN,complete,NaN,63bdb974d4e9ba2e6133b400,computer,Desktop or Laptop,Mac OS 10.15.7,Safari 15.6.1,1920x1080,1679x1017,Start of Day 2,SLS,90,B,NaN,NaN,NaN,Pass,End of Day 1,Pass,NaN,Pass,NaN,Pass,NaN,Start of Day 2,schedule_A,schedule_A,28,10,6,end,Zone1,timelimit_screen,150,NaN,NaN,,NaN,0,1,0,NaN,NaN,1,NaN,NaN,trial_left,redBox.png,redBox.png,yellowBox.png,al1_con.png,48,27,NaN,NaN,0.85,0.85,1,1,1,1,Stable,Stable,3.824,1.634,0.992,2.244,expert
139,1673464246695,11/01/2023 19:10:46,1673464246679,0,11/01/2023 19:10:46,111483,6,task-v1fs,repeat-u7ds#1->-repeat-l3h2#1->-repeat-pi7a#1->-repeat-apgu#1,26330620,BLIND,7766470,NaN,complete,NaN,63bdb974d4e9ba2e6133b400,computer,Desktop or Laptop,Mac OS 10.15.7,Safari 15.6.1,1920x1080,1679x1017,Start of Day 2,SLS,90,B,NaN,NaN,NaN,Pass,End of Day 1,Pass,NaN,Pass,NaN,Pass,NaN,Start of Day 2,schedule_A,schedule_A,29,11,1,Screen 1,Zone1,continue_button,599,NaN,NaN,,NaN,0,1,0,NaN,NaN,NaN,NaN,NaN,trial_left,redBox.png,redBox.png,yellowBox.png,al1_con.png,49,28,NaN,NaN,0.85,0.85,1,1,1,1,Stable,Stable,2.84,1.937,1.723,2.815,expert
140,1673464247690,11/01/2023 19:10:47,1673464247668,0,11/01/2023 19:10:47,111483,6,task-v1fs,repeat-u7ds#1->-repeat-l3h2#1->-repeat-pi7a#1->-repeat-apgu#1,26330620,BLIND,7766470,NaN,complete,NaN,63bdb974d4e9ba2e6133b400,computer,Desktop or Laptop,Mac OS 10.15.7,Safari 15.6.1,1920x1080,1679x1017,Start of Day 2,SLS,90,B,NaN,NaN,NaN,Pass,End of Day 1,Pass,NaN,Pass,NaN,Pass,NaN,Start of Day 2,schedule_A,schedule_A,29,11,2,individual,Zone4,timelimit_screen,1002,NaN,NaN,,NaN,0,1,0,NaN,NaN,1,NaN,NaN,trial_left,redBox.png,redBox.png,yellowBox.png,al1_con.png,49,28,NaN,NaN,0.85,0.85,1,1,1,1,Stable,Stable,2.84,1.937,1.723,2.815,expert
141,1673464248774,11/01/2023 19:10:48,1673464248760,0,11/01/2023 19:10:48,111483,6,task-v1fs,repeat-u7ds#1->-repeat-l3h2#1->-repeat-pi7a#1->-repeat-apgu#1,26330620,BLIND,7766470,NaN,complete,NaN,63bdb974d4e9ba2e6133b400,computer,Desktop or Laptop,Mac OS 10.15.7,Safari 15.6.1,1920x1080,1679x1017,Start of Day 2,SLS,90,B,NaN,NaN,NaN,Pass,End of Day 1,Pass,NaN,Pass,NaN,Pass,NaN,Start of Day 2,schedule_A,schedule_A,29,11,3,offer,Zone2,response_button_image,1084,NaN,NaN,redBox.png,1,1,0,0,NaN,NaN,NaN,NaN,NaN,trial_left,redBox.png,redBox.png,yellowBox.png,al1_con.png,49,28,NaN,NaN,0.85,0.85,1,1,1,1,Stable,Stable,2.84,1.937,1.723,2.815,expert
142,1673464250770,11/01/2023 19:10:50,1673464250754,0,11/01/2023 19:10:50,111483,6,task-v1fs,repeat-u7ds#1->-repeat-l3h2#1->-repeat-pi7a#1->-repeat-apgu#1,26330620,BLIND,7766470,NaN,complete,NaN,63bdb974d4e9ba2e6133b400,computer,Desktop or Laptop,Mac OS 10.15.7,Safari 15.6.1,1920x1080,1679x1017,Start of Day 2,SLS,90,B,NaN,NaN,NaN,Pass,End of Day 1,Pass,NaN,Pass,NaN,Pass,NaN,Start of Day 2,schedule_A,schedule_A,29,11,4,feedback_l,Zone7,timelimit_screen,2002,NaN,NaN,,NaN,0,1,0,NaN,NaN,1,NaN,NaN,trial_left,redBox.png,redBox.png,yellowBox.png,al1_con.png,49,28,NaN,NaN,0.85,0.85,1,1,1,1,Stable,Stable,2.84,1.937,1.723,2.815,expert
143,1673464250924,11/01/2023 19:10:50,1673464250904,0,11/01/2023 19:10:50,111483,6,task-v1fs,repeat-u7ds#1->-repeat-l3h2#1->-repeat-pi7a#1->-repeat-apgu#1,26330620,BLIND,7766470,NaN,complete,NaN,63bdb974d4e9ba2e6133b400,computer,Desktop or Laptop,Mac OS 10.15.7,Safari 15.6.1,1920x1080,1679x1017,Start of Day 2,SLS,90,B,NaN,NaN,NaN,Pass,End of Day 1,Pass,NaN,Pass,NaN,Pass,NaN,Start of Day 2,schedule_A,schedule_A,29,11,6,end,Zone1,timelimit_screen,151,NaN,NaN,,NaN,0,1,0,NaN,NaN,1,NaN,NaN,trial_left,redBox.png,redBox.png,yellowBox.png,al1_con.png,49,28,NaN,NaN,0.85,0.85,1,1,1,1,Stable,Stable,2.84,1.937,1.723,2.815,expert
144,1673464251508,11/01/2023 19:10:51,1673464251494,0,11/01/2023 19:10:51,111483,6,task-v1fs,repeat-u7ds#1->-repeat-l3h2#1->-repeat-pi7a#1->-repeat-apgu#1,26330620,BLIND,7766470,NaN,complete,NaN,63bdb974d4e9ba2e6133b400,computer,Desktop or Laptop,Mac OS 10.15.7,Safari 15.6.1,1920x1080,1679x1017,Start of Day 2,SLS,90,B,NaN,NaN,NaN,Pass,End of Day 1,Pass,NaN,Pass,NaN,Pass,NaN,Start of Day 2,schedule_A,schedule_A,30,18,1,Screen 1,Zone1,continue_button,575.999999999971,NaN,NaN,,NaN,0,1,0,NaN,NaN,NaN,NaN,NaN,trial_right,redBox.png,yellowBox.png,redBox.png,al1_con.png,50,29,NaN,NaN,0.85,0.85,1,1,1,0,Stable,Stable,2.941,1.71,0.664,1.336,expert
145,1673464252511,11/01/2023 19:10:52,1673464252489,0,11/01/2023 19:10:52,111483,6,task-v1fs,repeat-u7ds#1->-repeat-l3h2#1->-repeat-pi7a#1->-repeat-apgu#1,26330620,BLIND,7766470,NaN,complete,NaN,63bdb974d4e9ba2e6133b400,computer,Desktop or Laptop,Mac OS 10.15.7,Safari 15.6.1,1920x1080,1679x1017,Start of Day 2,SLS,90,B,NaN,NaN,NaN,Pass,End of Day 1,Pass,NaN,Pass,NaN,Pass,NaN,Start of Day 2,schedule_A,schedule_A,30,18,2,individual,Zone4,timelimit_screen,1002,NaN,NaN,,NaN,0,1,0,NaN,NaN,1,NaN,NaN,trial_right,redBox.png,yellowBox.png,redBox.png,al1_con.png,50,29,NaN,NaN,0.85,0.85,1,1,1,0,Stable,Stable,2.941,1.71,0.664,1.336,expert
146,1673464253389,11/01/2023 19:10:53,1673464253372,0,11/01/2023 19:10:53,111483,6,task-v1fs,repeat-u7ds#1->-repeat-l3h2#1->-repeat-pi7a#1->-repeat-apgu#1,26330620,BLIND,7766470,NaN,complete,NaN,63bdb974d4e9ba2e6133b400,computer,Desktop or Laptop,Mac OS 10.15.7,Safari 15.6.1,1920x1080,1679x1017,Start of Day 2,SLS,90,B,NaN,NaN,NaN,Pass,End of Day 1,Pass,NaN,Pass,NaN,Pass,NaN,Start of Day 2,schedule_A,schedule_A,30,18,3,offer,Zone3,response_button_image,875,NaN,NaN,redBox.png,1,1,0,0,NaN,NaN,NaN,NaN,NaN,trial_right,redBox.png,yellowBox.png,redBox.png,al1_con.png,50,29,NaN,NaN,0.85,0.85,1,1,1,0,Stable,Stable,2.941,1.71,0.664,1.336,expert
147,1673464255379,11/01/2023 19:10:55,1673464255359,0,11/01/2023 19:10:55,111483,6,task-v1fs,repeat-u7ds#1->-repeat-l3h2#1->-repeat-pi7a#1->-repeat-apgu#1,26330620,BLIND,7766470,NaN,complete,NaN,63bdb974d4e9ba2e6133b400,computer,Desktop or Laptop,Mac OS 10.15.7,Safari 15.6.1,1920x1080,1679x1017,Start of Day 2,SLS,90,B,NaN,NaN,NaN,Pass,End of Day 1,Pass,NaN,Pass,NaN,Pass,NaN,Start of Day 2,schedule_A,schedule_A,30,18,5,feedback_r,Zone7,timelimit_screen,2003,NaN,NaN,,NaN,0,1,0,NaN,NaN,1,NaN,NaN,trial_right,redBox.png,yellowBox.png,redBox.png,al1_con.png,50,29,NaN,NaN,0.85,0.85,1,1,1,0,Stable,Stable,2.941,1.71,0.664,1.336,expert
148,1673464255526,11/01/2023 19:10:55,1673464255508,0,11/01/2023 19:10:55,111483,6,task-v1fs,repeat-u7ds#1->-repeat-l3h2#1->-repeat-pi7a#1->-repeat-apgu#1,26330620,BLIND,7766470,NaN,complete,NaN,63bdb974d4e9ba2e6133b400,computer,Desktop or Laptop,Mac OS 10.15.7,Safari 15.6.1,1920x1080,1679x1017,Start of Day 2,SLS,90,B,NaN,NaN,NaN,Pass,End of Day 1,Pass,NaN,Pass,NaN,Pass,NaN,Start of Day 2,schedule_A,schedule_A,30,18,6,end,Zone1,timelimit_screen,149,NaN,NaN,,NaN,0,1,0,NaN,NaN,1,NaN,NaN,trial_right,redBox.png,yellowBox.png,redBox.png,al1_con.png,50,29,NaN,NaN,0.85,0.85,1,1,1,0,Stable,Stable,2.941,1.71,0.664,1.336,expert
149,1673464256155,11/01/2023 19:10:56,1673464256141,0,11/01/2023 19:10:56,111483,6,task-v1fs,repeat-u7ds#1->-repeat-l3h2#1->-repeat-pi7a#1->-repeat-apgu#1,26330620,BLIND,7766470,NaN,complete,NaN,63bdb974d4e9ba2e6133b400,computer,Desktop or Laptop,Mac OS 10.15.7,Safari 15.6.1,1920x1080,1679x1017,Start of Day 2,SLS,90,B,NaN,NaN,NaN,Pass,End of Day 1,Pass,NaN,Pass,NaN,Pass,NaN,Start of Day 2,schedule_A,schedule_A,31,12,1,Screen 1,Zone1,continue_button,613,NaN,NaN,,NaN,0,1,0,NaN,NaN,NaN,NaN,NaN,trial_left,redBox.png,redBox.png,yellowBox.png,al1_con.png,61,30,NaN,NaN,0.85,0.85,1,1,1,1,Stable,Stable,2.79,1.735,0.601,2.345,expert
150,1673464257142,11/01/2023 19:10:57,1673464257128,0,11/01/2023 19:10:57,111483,6,task-v1fs,repeat-u7ds#1->-repeat-l3h2#1->-repeat-pi7a#1->-repeat-apgu#1,26330620,BLIND,7766470,NaN,complete,NaN,63bdb974d4e9ba2e6133b400,computer,Desktop or Laptop,Mac OS 10.15.7,Safari 15.6.1,1920x1080,1679x1017,Start of Day 2,SLS,90,B,NaN,NaN,NaN,Pass,End of Day 1,Pass,NaN,Pass,NaN,Pass,NaN,Start of Day 2,schedule_A,schedule_A,31,12,2,individual,Zone4,timelimit_screen,1001,NaN,NaN,,NaN,0,1,0,NaN,NaN,1,NaN,NaN,trial_left,redBox.png,redBox.png,yellowBox.png,al1_con.png,61,30,NaN,NaN,0.85,0.85,1,1,1,1,Stable,Stable,2.79,1.735,0.601,2.345,expert
151,1673464258140,11/01/2023 19:10:58,1673464258120,0,11/01/2023 19:10:58,111483,6,task-v1fs,repeat-u7ds#1->-repeat-l3h2#1->-repeat-pi7a#1->-repeat-apgu#1,26330620,BLIND,7766470,NaN,complete,NaN,63bdb974d4e9ba2e6133b400,computer,Desktop or Laptop,Mac OS 10.15.7,Safari 15.6.1,1920x1080,1679x1017,Start of Day 2,SLS,90,B,NaN,NaN,NaN,Pass,End of Day 1,Pass,NaN,Pass,NaN,Pass,NaN,Start of Day 2,schedule_A,schedule_A,31,12,3,offer,Zone2,response_button_image,984,NaN,NaN,redBox.png,1,1,0,0,NaN,NaN,NaN,NaN,NaN,trial_left,redBox.png,redBox.png,yellowBox.png,al1_con.png,61,30,NaN,NaN,0.85,0.85,1,1,1,1,Stable,Stable,2.79,1.735,0.601,2.345,expert
152,1673464260133,11/01/2023 19:11:00,1673464260114,0,11/01/2023 19:11:00,111483,6,task-v1fs,repeat-u7ds#1->-repeat-l3h2#1->-repeat-pi7a#1->-repeat-apgu#1,26330620,BLIND,7766470,NaN,complete,NaN,63bdb974d4e9ba2e6133b400,computer,Desktop or Laptop,Mac OS 10.15.7,Safari 15.6.1,1920x1080,1679x1017,Start of Day 2,SLS,90,B,NaN,NaN,NaN,Pass,End of Day 1,Pass,NaN,Pass,NaN,Pass,NaN,Start of Day 2,schedule_A,schedule_A,31,12,4,feedback_l,Zone7,timelimit_screen,2002,NaN,NaN,,NaN,0,1,0,NaN,NaN,1,NaN,NaN,trial_left,redBox.png,redBox.png,yellowBox.png,al1_con.png,61,30,NaN,NaN,0.85,0.85,1,1,1,1,Stable,Stable,2.79,1.735,0.601,2.345,expert
153,1673464260277,11/01/2023 19:11:00,1673464260264,0,11/01/2023 19:11:00,111483,6,task-v1fs,repeat-u7ds#1->-repeat-l3h2#1->-repeat-pi7a#1->-repeat-apgu#1,26330620,BLIND,7766470,NaN,complete,NaN,63bdb974d4e9ba2e6133b400,computer,Desktop or Laptop,Mac OS 10.15.7,Safari 15.6.1,1920x1080,1679x1017,Start of Day 2,SLS,90,B,NaN,NaN,NaN,Pass,End of Day 1,Pass,NaN,Pass,NaN,Pass,NaN,Start of Day 2,schedule_A,schedule_A,31,12,6,end,Zone1,timelimit_screen,150,NaN,NaN,,NaN,0,1,0,NaN,NaN,1,NaN,NaN,trial_left,redBox.png,redBox.png,yellowBox.png,al1_con.png,61,30,NaN,NaN,0.85,0.85,1,1,1,1,Stable,Stable,2.79,1.735,0.601,2.345,expert
154,1673464260916,11/01/2023 19:11:00,1673464260899,0,11/01/2023 19:11:00,111483,6,task-v1fs,repeat-u7ds#1->-repeat-l3h2#1->-repeat-pi7a#1->-repeat-apgu#1,26330620,BLIND,7766470,NaN,complete,NaN,63bdb974d4e9ba2e6133b400,computer,Desktop or Laptop,Mac OS 10.15.7,Safari 15.6.1,1920x1080,1679x1017,Start of Day 2,SLS,90,B,NaN,NaN,NaN,Pass,End of Day 1,Pass,NaN,Pass,NaN,Pass,NaN,Start of Day 2,schedule_A,schedule_A,32,19,1,Screen 1,Zone1,continue_button,620.000000000029,NaN,NaN,,NaN,0,1,0,NaN,NaN,NaN,NaN,NaN,trial_right,redBox.png,redBox.png,yellowBox.png,al1_con.png,62,31,NaN,NaN,0.85,0.15,1,0,0,1,Stable,Volatile,2.538,1.672,1.143,1.555,expert
155,1673464261915,11/01/2023 19:11:01,1673464261899,0,11/01/2023 19:11:01,111483,6,task-v1fs,repeat-u7ds#1->-repeat-l3h2#1->-repeat-pi7a#1->-repeat-apgu#1,26330620,BLIND,7766470,NaN,complete,NaN,63bdb974d4e9ba2e6133b400,computer,Desktop or Laptop,Mac OS 10.15.7,Safari 15.6.1,1920x1080,1679x1017,Start of Day 2,SLS,90,B,NaN,NaN,NaN,Pass,End of Day 1,Pass,NaN,Pass,NaN,Pass,NaN,Start of Day 2,schedule_A,schedule_A,32,19,2,individual,Zone4,timelimit_screen,1001,NaN,NaN,,NaN,0,1,0,NaN,NaN,1,NaN,NaN,trial_right,redBox.png,redBox.png,yellowBox.png,al1_con.png,62,31,NaN,NaN,0.85,0.15,1,0,0,1,Stable,Volatile,2.538,1.672,1.143,1.555,expert
156,1673464262918,11/01/2023 19:11:02,1673464262890,0,11/01/2023 19:11:02,111483,6,task-v1fs,repeat-u7ds#1->-repeat-l3h2#1->-repeat-pi7a#1->-repeat-apgu#1,26330620,BLIND,7766470,NaN,complete,NaN,63bdb974d4e9ba2e6133b400,computer,Desktop or Laptop,Mac OS 10.15.7,Safari 15.6.1,1920x1080,1679x1017,Start of Day 2,SLS,90,B,NaN,NaN,NaN,Pass,End of Day 1,Pass,NaN,Pass,NaN,Pass,NaN,Start of Day 2,schedule_A,schedule_A,32,19,3,offer,Zone3,response_button_image,983,NaN,NaN,yellowBox.png,1,0,1,0,NaN,NaN,NaN,NaN,NaN,trial_right,redBox.png,redBox.png,yellowBox.png,al1_con.png,62,31,NaN,NaN,0.85,0.15,1,0,0,1,Stable,Volatile,2.538,1.672,1.143,1.555,expert
