EventIndex,UTCTimestamp,UTCDate,LocalTimestamp,LocalTimezone,LocalDate,ExperimentID,ExperimentVersion,TreeNodeKey,RepeatKey,ScheduleID,ParticipantPublicID,ParticipantPrivateID,ParticipantStartingGroup,ParticipantStatus,ParticipantCompletionCode,ParticipantExternalSessionID,ParticipantDeviceType,ParticipantDevice,ParticipantOS,ParticipantBrowser,ParticipantMonitorSize,ParticipantViewportSize,Checkpoint,TaskName,TaskVersion,randomiser_6z9f,branch_kxy7,checkpoint_tqwf,branch_rtog,branch_7dgx,checkpoint_mqen,branch_yx2c,branch_3n8o,branch_f1s6,branch_x6l7,branch_21hs,checkpoint_iz27,checkpoint_sry6,Spreadsheet,SpreadsheetName,SpreadsheetRow,TrialNumber,ScreenNumber,ScreenName,ZoneName,ZoneType,ReactionTime,ReactionOnset,ResponseType,Response,Attempt,Correct,Incorrect,Dishonest,XCoordinate,YCoordinate,TimedOut,randomise_blocks,randomise_trials,display,ANSWER,left_button,right_button,advice,orderno,trialno,ShowProgressBar,image,prob_blue_corr,prob_group_corr,corr_ans,group_corr,group_choice,blue_pos,indiv_vol,soc_vol,ITI_1,ITI_2,ITI_3,ITI_4,condition
1,1673464569487,11/01/2023 19:16:09,1673464569635,0,11/01/2023 19:16:09,111483,5,task-v1fs,repeat-u7ds#1->-repeat-l3h2#1->-repeat-pi7a#1->-repeat-apgu#1,26330787,BLIND,7766384,NaN,complete,NaN,63bdb64bc7338fb4af0e3822,computer,Desktop or Laptop,Chromium OS 15183.69.0,Chrome 108.0.0.0,1536x864,1536x864,Start of Day 2,SLS,90,B,NaN,NaN,NaN,Pass,End of Day 1,Pass,NaN,Pass,NaN,Pass,NaN,Start of Day 2,schedule_A,,NaN,NaN,NaN,,,,NaN,NaN,NaN,,NaN,0,1,0,NaN,NaN,NaN,NaN,NaN,,,,,,NaN,NaN,NaN,NaN,NaN,NaN,NaN,NaN,NaN,NaN,,,NaN,NaN,NaN,NaN,
2,1673464571903,11/01/2023 19:16:11,1673464572108,0,11/01/2023 19:16:12,111483,5,task-v1fs,repeat-u7ds#1->-repeat-l3h2#1->-repeat-pi7a#1->-repeat-apgu#1,26330787,BLIND,7766384,NaN,complete,NaN,63bdb64bc7338fb4af0e3822,computer,Desktop or Laptop,Chromium OS 15183.69.0,Chrome 108.0.0.0,1536x864,1536x864,Start of Day 2,SLS,90,B,NaN,NaN,NaN,Pass,End of Day 1,Pass,NaN,Pass,NaN,Pass,NaN,Start of Day 2,schedule_A,schedule_A,1,1,1,Screen 1,Zone1,continue_button,1643.70000000298,NaN,NaN,,NaN,0,1,0,NaN,NaN,NaN,NaN,NaN,getReady,,,,,1,NaN,NaN,NaN,NaN,NaN,NaN,NaN,NaN,NaN,,,NaN,NaN,NaN,NaN,
3,1673464573306,11/01/2023 19:16:13,1673464573502,0,11/01/2023 19:16:13,111483,5,task-v1fs,repeat-u7ds#1->-repeat-l3h2#1->-repeat-pi7a#1->-repeat-apgu#1,26330787,BLIND,7766384,NaN,complete,NaN,63bdb64bc7338fb4af0e3822,computer,Desktop or Laptop,Chromium OS 15183.69.0,Chrome 108.0.0.0,1536x864,1536x864,Start of Day 2,SLS,90,B,NaN,NaN,NaN,Pass,End of Day 1,Pass,NaN,Pass,NaN,Pass,NaN,Start of Day 2,schedule_A,schedule_A,1,1,2,Screen 2,Zone1,continue_button,1382,NaN,NaN,,NaN,0,1,0,NaN,NaN,NaN,NaN,NaN,getReady,,,,,1,NaN,NaN,NaN,NaN,NaN,NaN,NaN,NaN,NaN,,,NaN,NaN,NaN,NaN,
4,1673464576125,11/01/2023 19:16:16,1673464576311,0,11/01/2023 19:16:16,111483,5,task-v1fs,repeat-u7ds#1->-repeat-l3h2#1->-repeat-pi7a#1->-repeat-apgu#1,26330787,BLIND,7766384,NaN,complete,NaN,63bdb64bc7338fb4af0e3822,computer,Desktop or Laptop,Chromium OS 15183.69.0,Chrome 108.0.0.0,1536x864,1536x864,Start of Day 2,SLS,90,B,NaN,NaN,NaN,Pass,End of Day 1,Pass,NaN,Pass,NaN,Pass,NaN,Start of Day 2,schedule_A,schedule_A,2,1,1,Screen 1,Zone1,continue_button,2767.09999999404,NaN,NaN,,NaN,0,1,0,NaN,NaN,NaN,NaN,NaN,trial_right,redBox.png,yellowBox.png,redBox.png,al1_con.png,2,1,NaN,NaN,0.85,0.85,1,1,1,0,Volatile,Stable,3.471,0.525,1.66,2.529,expert
5,1673464577108,11/01/2023 19:16:17,1673464577307,0,11/01/2023 19:16:17,111483,5,task-v1fs,repeat-u7ds#1->-repeat-l3h2#1->-repeat-pi7a#1->-repeat-apgu#1,26330787,BLIND,7766384,NaN,complete,NaN,63bdb64bc7338fb4af0e3822,computer,Desktop or Laptop,Chromium OS 15183.69.0,Chrome 108.0.0.0,1536x864,1536x864,Start of Day 2,SLS,90,B,NaN,NaN,NaN,Pass,End of Day 1,Pass,NaN,Pass,NaN,Pass,NaN,Start of Day 2,schedule_A,schedule_A,2,1,2,individual,Zone4,timelimit_screen,999.610000000001,NaN,NaN,,NaN,0,1,0,NaN,NaN,1,NaN,NaN,trial_right,redBox.png,yellowBox.png,redBox.png,al1_con.png,2,1,NaN,NaN,0.85,0.85,1,1,1,0,Volatile,Stable,3.471,0.525,1.66,2.529,expert
6,1673464577979,11/01/2023 19:16:17,1673464578184,0,11/01/2023 19:16:18,111483,5,task-v1fs,repeat-u7ds#1->-repeat-l3h2#1->-repeat-pi7a#1->-repeat-apgu#1,26330787,BLIND,7766384,NaN,complete,NaN,63bdb64bc7338fb4af0e3822,computer,Desktop or Laptop,Chromium OS 15183.69.0,Chrome 108.0.0.0,1536x864,1536x864,Start of Day 2,SLS,90,B,NaN,NaN,NaN,Pass,End of Day 1,Pass,NaN,Pass,NaN,Pass,NaN,Start of Day 2,schedule_A,schedule_A,2,1,3,offer,Zone3,response_button_image,857.70000000298,NaN,NaN,redBox.png,1,1,0,0,NaN,NaN,NaN,NaN,NaN,trial_right,redBox.png,yellowBox.png,redBox.png,al1_con.png,2,1,NaN,NaN,0.85,0.85,1,1,1,0,Volatile,Stable,3.471,0.525,1.66,2.529,expert
7,1673464580197,11/01/2023 19:16:20,1673464580172,0,11/01/2023 19:16:20,111483,5,task-v1fs,repeat-u7ds#1->-repeat-l3h2#1->-repeat-pi7a#1->-repeat-apgu#1,26330787,BLIND,7766384,NaN,complete,NaN,63bdb64bc7338fb4af0e3822,computer,Desktop or Laptop,Chromium OS 15183.69.0,Chrome 108.0.0.0,1536x864,1536x864,Start of Day 2,SLS,90,B,NaN,NaN,NaN,Pass,End of Day 1,Pass,NaN,Pass,NaN,Pass,NaN,Start of Day 2,schedule_A,schedule_A,2,1,5,feedback_r,Zone7,timelimit_screen,1999.316,NaN,NaN,,NaN,0,1,0,NaN,NaN,1,NaN,NaN,trial_right,redBox.png,yellowBox.png,redBox.png,al1_con.png,2,1,NaN,NaN,0.85,0.85,1,1,1,0,Volatile,Stable,3.471,0.525,1.66,2.529,expert
8,1673464580270,11/01/2023 19:16:20,1673464580321,0,11/01/2023 19:16:20,111483,5,task-v1fs,repeat-u7ds#1->-repeat-l3h2#1->-repeat-pi7a#1->-repeat-apgu#1,26330787,BLIND,7766384,NaN,complete,NaN,63bdb64bc7338fb4af0e3822,computer,Desktop or Laptop,Chromium OS 15183.69.0,Chrome 108.0.0.0,1536x864,1536x864,Start of Day 2,SLS,90,B,NaN,NaN,NaN,Pass,End of Day 1,Pass,NaN,Pass,NaN,Pass,NaN,Start of Day 2,schedule_A,schedule_A,2,1,6,end,Zone1,timelimit_screen,149.948,NaN,NaN,,NaN,0,1,0,NaN,NaN,1,NaN,NaN,trial_right,redBox.png,yellowBox.png,redBox.png,al1_con.png,2,1,NaN,NaN,0.85,0.85,1,1,1,0,Volatile,Stable,3.471,0.525,1.66,2.529,expert
9,1673464581999,11/01/2023 19:16:21,1673464582198,0,11/01/2023 19:16:22,111483,5,task-v1fs,repeat-u7ds#1->-repeat-l3h2#1->-repeat-pi7a#1->-repeat-apgu#1,26330787,BLIND,7766384,NaN,complete,NaN,63bdb64bc7338fb4af0e3822,computer,Desktop or Laptop,Chromium OS 15183.69.0,Chrome 108.0.0.0,1536x864,1536x864,Start of Day 2,SLS,90,B,NaN,NaN,NaN,Pass,End of Day 1,Pass,NaN,Pass,NaN,Pass,NaN,Start of Day 2,schedule_A,schedule_A,3,1,1,Screen 1,Zone1,continue_button,1847.40000000596,NaN,NaN,,NaN,0,1,0,NaN,NaN,NaN,NaN,NaN,trial_left,redBox.png,redBox.png,yellowBox.png,al1_con.png,3,2,NaN,NaN,0.85,0.85,1,1,1,1,Volatile,Stable,1.782,1.168,1.168,2.462,expert
10,1673464582981,11/01/2023 19:16:22,1673464583187,0,11/01/2023 19:16:23,111483,5,task-v1fs,repeat-u7ds#1->-repeat-l3h2#1->-repeat-pi7a#1->-repeat-apgu#1,26330787,BLIND,7766384,NaN,complete,NaN,63bdb64bc7338fb4af0e3822,computer,Desktop or Laptop,Chromium OS 15183.69.0,Chrome 108.0.0.0,1536x864,1536x864,Start of Day 2,SLS,90,B,NaN,NaN,NaN,Pass,End of Day 1,Pass,NaN,Pass,NaN,Pass,NaN,Start of Day 2,schedule_A,schedule_A,3,1,2,individual,Zone4,timelimit_screen,999.596,NaN,NaN,,NaN,0,1,0,NaN,NaN,1,NaN,NaN,trial_left,redBox.png,redBox.png,yellowBox.png,al1_con.png,3,2,NaN,NaN,0.85,0.85,1,1,1,1,Volatile,Stable,1.782,1.168,1.168,2.462,expert
11,1673464583802,11/01/2023 19:16:23,1673464584010,0,11/01/2023 19:16:24,111483,5,task-v1fs,repeat-u7ds#1->-repeat-l3h2#1->-repeat-pi7a#1->-repeat-apgu#1,26330787,BLIND,7766384,NaN,complete,NaN,63bdb64bc7338fb4af0e3822,computer,Desktop or Laptop,Chromium OS 15183.69.0,Chrome 108.0.0.0,1536x864,1536x864,Start of Day 2,SLS,90,B,NaN,NaN,NaN,Pass,End of Day 1,Pass,NaN,Pass,NaN,Pass,NaN,Start of Day 2,schedule_A,schedule_A,3,1,3,offer,Zone2,response_button_image,804.90000000596,NaN,NaN,redBox.png,1,1,0,0,NaN,NaN,NaN,NaN,NaN,trial_left,redBox.png,redBox.png,yellowBox.png,al1_con.png,3,2,NaN,NaN,0.85,0.85,1,1,1,1,Volatile,Stable,1.782,1.168,1.168,2.462,expert
12,1673464585794,11/01/2023 19:16:25,1673464586003,0,11/01/2023 19:16:26,111483,5,task-v1fs,repeat-u7ds#1->-repeat-l3h2#1->-repeat-pi7a#1->-repeat-apgu#1,26330787,BLIND,7766384,NaN,complete,NaN,63bdb64bc7338fb4af0e3822,computer,Desktop or Laptop,Chromium OS 15183.69.0,Chrome 108.0.0.0,1536x864,1536x864,Start of Day 2,SLS,90,B,NaN,NaN,NaN,Pass,End of Day 1,Pass,NaN,Pass,NaN,Pass,NaN,Start of Day 2,schedule_A,schedule_A,3,1,4,feedback_l,Zone7,timelimit_screen,1999.255,NaN,NaN,,NaN,0,1,0,NaN,NaN,1,NaN,NaN,trial_left,redBox.png,redBox.png,yellowBox.png,al1_con.png,3,2,NaN,NaN,0.85,0.85,1,1,1,1,Volatile,Stable,1.782,1.168,1.168,2.462,expert
13,1673464586004,11/01/2023 19:16:26,1673464586153,0,11/01/2023 19:16:26,111483,5,task-v1fs,repeat-u7ds#1->-repeat-l3h2#1->-repeat-pi7a#1->-repeat-apgu#1,26330787,BLIND,7766384,NaN,complete,NaN,63bdb64bc7338fb4af0e3822,computer,Desktop or Laptop,Chromium OS 15183.69.0,Chrome 108.0.0.0,1536x864,1536x864,Start of Day 2,SLS,90,B,NaN,NaN,NaN,Pass,End of Day 1,Pass,NaN,Pass,NaN,Pass,NaN,Start of Day 2,schedule_A,schedule_A,3,1,6,end,Zone1,timelimit_screen,150.074000000001,NaN,NaN,,NaN,0,1,0,NaN,NaN,1,NaN,NaN,trial_left,redBox.png,redBox.png,yellowBox.png,al1_con.png,3,2,NaN,NaN,0.85,0.85,1,1,1,1,Volatile,Stable,1.782,1.168,1.168,2.462,expert
14,1673464586820,11/01/2023 19:16:26,1673464587019,0,11/01/2023 19:16:27,111483,5,task-v1fs,repeat-u7ds#1->-repeat-l3h2#1->-repeat-pi7a#1->-repeat-apgu#1,26330787,BLIND,7766384,NaN,complete,NaN,63bdb64bc7338fb4af0e3822,computer,Desktop or Laptop,Chromium OS 15183.69.0,Chrome 108.0.0.0,1536x864,1536x864,Start of Day 2,SLS,90,B,NaN,NaN,NaN,Pass,End of Day 1,Pass,NaN,Pass,NaN,Pass,NaN,Start of Day 2,schedule_A,schedule_A,4,2,1,Screen 1,Zone1,continue_button,834.800000011921,NaN,NaN,,NaN,0,1,0,NaN,NaN,NaN,NaN,NaN,trial_right,redBox.png,yellowBox.png,redBox.png,al1_con.png,4,3,NaN,NaN,0.85,0.85,1,1,1,0,Volatile,Stable,1.983,1.181,0.538,1.588,expert
15,1673464587786,11/01/2023 19:16:27,1673464588003,0,11/01/2023 19:16:28,111483,5,task-v1fs,repeat-u7ds#1->-repeat-l3h2#1->-repeat-pi7a#1->-repeat-apgu#1,26330787,BLIND,7766384,NaN,complete,NaN,63bdb64bc7338fb4af0e3822,computer,Desktop or Laptop,Chromium OS 15183.69.0,Chrome 108.0.0.0,1536x864,1536x864,Start of Day 2,SLS,90,B,NaN,NaN,NaN,Pass,End of Day 1,Pass,NaN,Pass,NaN,Pass,NaN,Start of Day 2,schedule_A,schedule_A,4,2,2,individual,Zone4,timelimit_screen,999.610999999997,NaN,NaN,,NaN,0,1,0,NaN,NaN,1,NaN,NaN,trial_right,redBox.png,yellowBox.png,redBox.png,al1_con.png,4,3,NaN,NaN,0.85,0.85,1,1,1,0,Volatile,Stable,1.983,1.181,0.538,1.588,expert
16,1673464588606,11/01/2023 19:16:28,1673464588811,0,11/01/2023 19:16:28,111483,5,task-v1fs,repeat-u7ds#1->-repeat-l3h2#1->-repeat-pi7a#1->-repeat-apgu#1,26330787,BLIND,7766384,NaN,complete,NaN,63bdb64bc7338fb4af0e3822,computer,Desktop or Laptop,Chromium OS 15183.69.0,Chrome 108.0.0.0,1536x864,1536x864,Start of Day 2,SLS,90,B,NaN,NaN,NaN,Pass,End of Day 1,Pass,NaN,Pass,NaN,Pass,NaN,Start of Day 2,schedule_A,schedule_A,4,2,3,offer,Zone3,response_button_image,786.399999991059,NaN,NaN,redBox.png,1,1,0,0,NaN,NaN,NaN,NaN,NaN,trial_right,redBox.png,yellowBox.png,redBox.png,al1_con.png,4,3,NaN,NaN,0.85,0.85,1,1,1,0,Volatile,Stable,1.983,1.181,0.538,1.588,expert
17,1673464590744,11/01/2023 19:16:30,1673464590803,0,11/01/2023 19:16:30,111483,5,task-v1fs,repeat-u7ds#1->-repeat-l3h2#1->-repeat-pi7a#1->-repeat-apgu#1,26330787,BLIND,7766384,NaN,complete,NaN,63bdb64bc7338fb4af0e3822,computer,Desktop or Laptop,Chromium OS 15183.69.0,Chrome 108.0.0.0,1536x864,1536x864,Start of Day 2,SLS,90,B,NaN,NaN,NaN,Pass,End of Day 1,Pass,NaN,Pass,NaN,Pass,NaN,Start of Day 2,schedule_A,schedule_A,4,2,5,feedback_r,Zone7,timelimit_screen,1999.253,NaN,NaN,,NaN,0,1,0,NaN,NaN,1,NaN,NaN,trial_right,redBox.png,yellowBox.png,redBox.png,al1_con.png,4,3,NaN,NaN,0.85,0.85,1,1,1,0,Volatile,Stable,1.983,1.181,0.538,1.588,expert
18,1673464590841,11/01/2023 19:16:30,1673464590952,0,11/01/2023 19:16:30,111483,5,task-v1fs,repeat-u7ds#1->-repeat-l3h2#1->-repeat-pi7a#1->-repeat-apgu#1,26330787,BLIND,7766384,NaN,complete,NaN,63bdb64bc7338fb4af0e3822,computer,Desktop or Laptop,Chromium OS 15183.69.0,Chrome 108.0.0.0,1536x864,1536x864,Start of Day 2,SLS,90,B,NaN,NaN,NaN,Pass,End of Day 1,Pass,NaN,Pass,NaN,Pass,NaN,Start of Day 2,schedule_A,schedule_A,4,2,6,end,Zone1,timelimit_screen,150.062000000002,NaN,NaN,,NaN,0,1,0,NaN,NaN,1,NaN,NaN,trial_right,redBox.png,yellowBox.png,redBox.png,al1_con.png,4,3,NaN,NaN,0.85,0.85,1,1,1,0,Volatile,Stable,1.983,1.181,0.538,1.588,expert
19,1673464591461,11/01/2023 19:16:31,1673464591669,0,11/01/2023 19:16:31,111483,5,task-v1fs,repeat-u7ds#1->-repeat-l3h2#1->-repeat-pi7a#1->-repeat-apgu#1,26330787,BLIND,7766384,NaN,complete,NaN,63bdb64bc7338fb4af0e3822,computer,Desktop or Laptop,Chromium OS 15183.69.0,Chrome 108.0.0.0,1536x864,1536x864,Start of Day 2,SLS,90,B,NaN,NaN,NaN,Pass,End of Day 1,Pass,NaN,Pass,NaN,Pass,NaN,Start of Day 2,schedule_A,schedule_A,5,3,1,Screen 1,Zone1,continue_button,683.899999991059,NaN,NaN,,NaN,0,1,0,NaN,NaN,NaN,NaN,NaN,trial_right,redBox.png,yellowBox.png,redBox.png,al1_con.png,5,4,NaN,NaN,0.85,0.85,1,1,1,0,Volatile,Stable,1.529,0.891,1.004,1,expert
20,1673464592464,11/01/2023 19:16:32,1673464592668,0,11/01/2023 19:16:32,111483,5,task-v1fs,repeat-u7ds#1->-repeat-l3h2#1->-repeat-pi7a#1->-repeat-apgu#1,26330787,BLIND,7766384,NaN,complete,NaN,63bdb64bc7338fb4af0e3822,computer,Desktop or Laptop,Chromium OS 15183.69.0,Chrome 108.0.0.0,1536x864,1536x864,Start of Day 2,SLS,90,B,NaN,NaN,NaN,Pass,End of Day 1,Pass,NaN,Pass,NaN,Pass,NaN,Start of Day 2,schedule_A,schedule_A,5,3,2,individual,Zone4,timelimit_screen,999.587000000003,NaN,NaN,,NaN,0,1,0,NaN,NaN,1,NaN,NaN,trial_right,redBox.png,yellowBox.png,redBox.png,al1_con.png,5,4,NaN,NaN,0.85,0.85,1,1,1,0,Volatile,Stable,1.529,0.891,1.004,1,expert
21,1673464593307,11/01/2023 19:16:33,1673464593513,0,11/01/2023 19:16:33,111483,5,task-v1fs,repeat-u7ds#1->-repeat-l3h2#1->-repeat-pi7a#1->-repeat-apgu#1,26330787,BLIND,7766384,NaN,complete,NaN,63bdb64bc7338fb4af0e3822,computer,Desktop or Laptop,Chromium OS 15183.69.0,Chrome 108.0.0.0,1536x864,1536x864,Start of Day 2,SLS,90,B,NaN,NaN,NaN,Pass,End of Day 1,Pass,NaN,Pass,NaN,Pass,NaN,Start of Day 2,schedule_A,schedule_A,5,3,3,offer,Zone3,response_button_image,823.699999988079,NaN,NaN,redBox.png,1,1,0,0,NaN,NaN,NaN,NaN,NaN,trial_right,redBox.png,yellowBox.png,redBox.png,al1_con.png,5,4,NaN,NaN,0.85,0.85,1,1,1,0,Volatile,Stable,1.529,0.891,1.004,1,expert
22,1673464595304,11/01/2023 19:16:35,1673464595500,0,11/01/2023 19:16:35,111483,5,task-v1fs,repeat-u7ds#1->-repeat-l3h2#1->-repeat-pi7a#1->-repeat-apgu#1,26330787,BLIND,7766384,NaN,complete,NaN,63bdb64bc7338fb4af0e3822,computer,Desktop or Laptop,Chromium OS 15183.69.0,Chrome 108.0.0.0,1536x864,1536x864,Start of Day 2,SLS,90,B,NaN,NaN,NaN,Pass,End of Day 1,Pass,NaN,Pass,NaN,Pass,NaN,Start of Day 2,schedule_A,schedule_A,5,3,5,feedback_r,Zone7,timelimit_screen,1999.257,NaN,NaN,,NaN,0,1,0,NaN,NaN,1,NaN,NaN,trial_right,redBox.png,yellowBox.png,redBox.png,al1_con.png,5,4,NaN,NaN,0.85,0.85,1,1,1,0,Volatile,Stable,1.529,0.891,1.004,1,expert
23,1673464595443,11/01/2023 19:16:35,1673464595650,0,11/01/2023 19:16:35,111483,5,task-v1fs,repeat-u7ds#1->-repeat-l3h2#1->-repeat-pi7a#1->-repeat-apgu#1,26330787,BLIND,7766384,NaN,complete,NaN,63bdb64bc7338fb4af0e3822,computer,Desktop or Laptop,Chromium OS 15183.69.0,Chrome 108.0.0.0,1536x864,1536x864,Start of Day 2,SLS,90,B,NaN,NaN,NaN,Pass,End of Day 1,Pass,NaN,Pass,NaN,Pass,NaN,Start of Day 2,schedule_A,schedule_A,5,3,6,end,Zone1,timelimit_screen,150.060000000001,NaN,NaN,,NaN,0,1,0,NaN,NaN,1,NaN,NaN,trial_right,redBox.png,yellowBox.png,redBox.png,al1_con.png,5,4,NaN,NaN,0.85,0.85,1,1,1,0,Volatile,Stable,1.529,0.891,1.004,1,expert
24,1673464596102,11/01/2023 19:16:36,1673464596311,0,11/01/2023 19:16:36,111483,5,task-v1fs,repeat-u7ds#1->-repeat-l3h2#1->-repeat-pi7a#1->-repeat-apgu#1,26330787,BLIND,7766384,NaN,complete,NaN,63bdb64bc7338fb4af0e3822,computer,Desktop or Laptop,Chromium OS 15183.69.0,Chrome 108.0.0.0,1536x864,1536x864,Start of Day 2,SLS,90,B,NaN,NaN,NaN,Pass,End of Day 1,Pass,NaN,Pass,NaN,Pass,NaN,Start of Day 2,schedule_A,schedule_A,6,2,1,Screen 1,Zone1,continue_button,628.199999988079,NaN,NaN,,NaN,0,1,0,NaN,NaN,NaN,NaN,NaN,trial_left,redBox.png,redBox.png,yellowBox.png,al1_con.png,6,5,NaN,NaN,0.85,0.85,1,1,1,1,Volatile,Stable,1.832,1.118,0.752,1.79,expert
25,1673464597091,11/01/2023 19:16:37,1673464597299,0,11/01/2023 19:16:37,111483,5,task-v1fs,repeat-u7ds#1->-repeat-l3h2#1->-repeat-pi7a#1->-repeat-apgu#1,26330787,BLIND,7766384,NaN,complete,NaN,63bdb64bc7338fb4af0e3822,computer,Desktop or Laptop,Chromium OS 15183.69.0,Chrome 108.0.0.0,1536x864,1536x864,Start of Day 2,SLS,90,B,NaN,NaN,NaN,Pass,End of Day 1,Pass,NaN,Pass,NaN,Pass,NaN,Start of Day 2,schedule_A,schedule_A,6,2,2,individual,Zone4,timelimit_screen,999.620999999999,NaN,NaN,,NaN,0,1,0,NaN,NaN,1,NaN,NaN,trial_left,redBox.png,redBox.png,yellowBox.png,al1_con.png,6,5,NaN,NaN,0.85,0.85,1,1,1,1,Volatile,Stable,1.832,1.118,0.752,1.79,expert
26,1673464597885,11/01/2023 19:16:37,1673464598084,0,11/01/2023 19:16:38,111483,5,task-v1fs,repeat-u7ds#1->-repeat-l3h2#1->-repeat-pi7a#1->-repeat-apgu#1,26330787,BLIND,7766384,NaN,complete,NaN,63bdb64bc7338fb4af0e3822,computer,Desktop or Laptop,Chromium OS 15183.69.0,Chrome 108.0.0.0,1536x864,1536x864,Start of Day 2,SLS,90,B,NaN,NaN,NaN,Pass,End of Day 1,Pass,NaN,Pass,NaN,Pass,NaN,Start of Day 2,schedule_A,schedule_A,6,2,3,offer,Zone2,response_button_image,765.40000000596,NaN,NaN,redBox.png,1,1,0,0,NaN,NaN,NaN,NaN,NaN,trial_left,redBox.png,redBox.png,yellowBox.png,al1_con.png,6,5,NaN,NaN,0.85,0.85,1,1,1,1,Volatile,Stable,1.832,1.118,0.752,1.79,expert
27,1673464599875,11/01/2023 19:16:39,1673464600082,0,11/01/2023 19:16:40,111483,5,task-v1fs,repeat-u7ds#1->-repeat-l3h2#1->-repeat-pi7a#1->-repeat-apgu#1,26330787,BLIND,7766384,NaN,complete,NaN,63bdb64bc7338fb4af0e3822,computer,Desktop or Laptop,Chromium OS 15183.69.0,Chrome 108.0.0.0,1536x864,1536x864,Start of Day 2,SLS,90,B,NaN,NaN,NaN,Pass,End of Day 1,Pass,NaN,Pass,NaN,Pass,NaN,Start of Day 2,schedule_A,schedule_A,6,2,4,feedback_l,Zone7,timelimit_screen,1999.337,NaN,NaN,,NaN,0,1,0,NaN,NaN,1,NaN,NaN,trial_left,redBox.png,redBox.png,yellowBox.png,al1_con.png,6,5,NaN,NaN,0.85,0.85,1,1,1,1,Volatile,Stable,1.832,1.118,0.752,1.79,expert
28,1673464600031,11/01/2023 19:16:40,1673464600232,0,11/01/2023 19:16:40,111483,5,task-v1fs,repeat-u7ds#1->-repeat-l3h2#1->-repeat-pi7a#1->-repeat-apgu#1,26330787,BLIND,7766384,NaN,complete,NaN,63bdb64bc7338fb4af0e3822,computer,Desktop or Laptop,Chromium OS 15183.69.0,Chrome 108.0.0.0,1536x864,1536x864,Start of Day 2,SLS,90,B,NaN,NaN,NaN,Pass,End of Day 1,Pass,NaN,Pass,NaN,Pass,NaN,Start of Day 2,schedule_A,schedule_A,6,2,6,end,Zone1,timelimit_screen,149.982,NaN,NaN,,NaN,0,1,0,NaN,NaN,1,NaN,NaN,trial_left,redBox.png,redBox.png,yellowBox.png,al1_con.png,6,5,NaN,NaN,0.85,0.85,1,1,1,1,Volatile,Stable,1.832,1.118,0.752,1.79,expert
29,1673464600577,11/01/2023 19:16:40,1673464600773,0,11/01/2023 19:16:40,111483,5,task-v1fs,repeat-u7ds#1->-repeat-l3h2#1->-repeat-pi7a#1->-repeat-apgu#1,26330787,BLIND,7766384,NaN,complete,NaN,63bdb64bc7338fb4af0e3822,computer,Desktop or Laptop,Chromium OS 15183.69.0,Chrome 108.0.0.0,1536x864,1536x864,Start of Day 2,SLS,90,B,NaN,NaN,NaN,Pass,End of Day 1,Pass,NaN,Pass,NaN,Pass,NaN,Start of Day 2,schedule_A,schedule_A,7,4,1,Screen 1,Zone1,continue_button,510.90000000596,NaN,NaN,,NaN,0,1,0,NaN,NaN,NaN,NaN,NaN,trial_right,yellowBox.png,redBox.png,yellowBox.png,al1_con.png,7,6,NaN,NaN,0.15,0.85,0,1,0,1,Volatile,Stable,3.294,0.815,1.282,2.664,expert
30,1673464601568,11/01/2023 19:16:41,1673464601765,0,11/01/2023 19:16:41,111483,5,task-v1fs,repeat-u7ds#1->-repeat-l3h2#1->-repeat-pi7a#1->-repeat-apgu#1,26330787,BLIND,7766384,NaN,complete,NaN,63bdb64bc7338fb4af0e3822,computer,Desktop or Laptop,Chromium OS 15183.69.0,Chrome 108.0.0.0,1536x864,1536x864,Start of Day 2,SLS,90,B,NaN,NaN,NaN,Pass,End of Day 1,Pass,NaN,Pass,NaN,Pass,NaN,Start of Day 2,schedule_A,schedule_A,7,4,2,individual,Zone4,timelimit_screen,999.598999999998,NaN,NaN,,NaN,0,1,0,NaN,NaN,1,NaN,NaN,trial_right,yellowBox.png,redBox.png,yellowBox.png,al1_con.png,7,6,NaN,NaN,0.15,0.85,0,1,0,1,Volatile,Stable,3.294,0.815,1.282,2.664,expert
31,1673464602364,11/01/2023 19:16:42,1673464602565,0,11/01/2023 19:16:42,111483,5,task-v1fs,repeat-u7ds#1->-repeat-l3h2#1->-repeat-pi7a#1->-repeat-apgu#1,26330787,BLIND,7766384,NaN,complete,NaN,63bdb64bc7338fb4af0e3822,computer,Desktop or Laptop,Chromium OS 15183.69.0,Chrome 108.0.0.0,1536x864,1536x864,Start of Day 2,SLS,90,B,NaN,NaN,NaN,Pass,End of Day 1,Pass,NaN,Pass,NaN,Pass,NaN,Start of Day 2,schedule_A,schedule_A,7,4,3,offer,Zone3,response_button_image,780.70000000298,NaN,NaN,yellowBox.png,1,1,0,0,NaN,NaN,NaN,NaN,NaN,trial_right,yellowBox.png,redBox.png,yellowBox.png,al1_con.png,7,6,NaN,NaN,0.15,0.85,0,1,0,1,Volatile,Stable,3.294,0.815,1.282,2.664,expert
32,1673464604383,11/01/2023 19:16:44,1673464604563,0,11/01/2023 19:16:44,111483,5,task-v1fs,repeat-u7ds#1->-repeat-l3h2#1->-repeat-pi7a#1->-repeat-apgu#1,26330787,BLIND,7766384,NaN,complete,NaN,63bdb64bc7338fb4af0e3822,computer,Desktop or Laptop,Chromium OS 15183.69.0,Chrome 108.0.0.0,1536x864,1536x864,Start of Day 2,SLS,90,B,NaN,NaN,NaN,Pass,End of Day 1,Pass,NaN,Pass,NaN,Pass,NaN,Start of Day 2,schedule_A,schedule_A,7,4,5,feedback_r,Zone7,timelimit_screen,1999.245,NaN,NaN,,NaN,0,1,0,NaN,NaN,1,NaN,NaN,trial_right,yellowBox.png,redBox.png,yellowBox.png,al1_con.png,7,6,NaN,NaN,0.15,0.85,0,1,0,1,Volatile,Stable,3.294,0.815,1.282,2.664,expert
33,1673464604498,11/01/2023 19:16:44,1673464604713,0,11/01/2023 19:16:44,111483,5,task-v1fs,repeat-u7ds#1->-repeat-l3h2#1->-repeat-pi7a#1->-repeat-apgu#1,26330787,BLIND,7766384,NaN,complete,NaN,63bdb64bc7338fb4af0e3822,computer,Desktop or Laptop,Chromium OS 15183.69.0,Chrome 108.0.0.0,1536x864,1536x864,Start of Day 2,SLS,90,B,NaN,NaN,NaN,Pass,End of Day 1,Pass,NaN,Pass,NaN,Pass,NaN,Start of Day 2,schedule_A,schedule_A,7,4,6,end,Zone1,timelimit_screen,150.073000000004,NaN,NaN,,NaN,0,1,0,NaN,NaN,1,NaN,NaN,trial_right,yellowBox.png,redBox.png,yellowBox.png,al1_con.png,7,6,NaN,NaN,0.15,0.85,0,1,0,1,Volatile,Stable,3.294,0.815,1.282,2.664,expert
34,1673464605224,11/01/2023 19:16:45,1673464605424,0,11/01/2023 19:16:45,111483,5,task-v1fs,repeat-u7ds#1->-repeat-l3h2#1->-repeat-pi7a#1->-repeat-apgu#1,26330787,BLIND,7766384,NaN,complete,NaN,63bdb64bc7338fb4af0e3822,computer,Desktop or Laptop,Chromium OS 15183.69.0,Chrome 108.0.0.0,1536x864,1536x864,Start of Day 2,SLS,90,B,NaN,NaN,NaN,Pass,End of Day 1,Pass,NaN,Pass,NaN,Pass,NaN,Start of Day 2,schedule_A,schedule_A,8,3,1,Screen 1,Zone1,continue_button,681.20000000298,NaN,NaN,,NaN,0,1,0,NaN,NaN,NaN,NaN,NaN,trial_left,yellowBox.png,yellowBox.png,redBox.png,al1_con.png,8,7,NaN,NaN,0.15,0.85,0,1,0,0,Volatile,Stable,3.269,1.37,1.786,2.328,expert
35,1673464606217,11/01/2023 19:16:46,1673464606413,0,11/01/2023 19:16:46,111483,5,task-v1fs,repeat-u7ds#1->-repeat-l3h2#1->-repeat-pi7a#1->-repeat-apgu#1,26330787,BLIND,7766384,NaN,complete,NaN,63bdb64bc7338fb4af0e3822,computer,Desktop or Laptop,Chromium OS 15183.69.0,Chrome 108.0.0.0,1536x864,1536x864,Start of Day 2,SLS,90,B,NaN,NaN,NaN,Pass,End of Day 1,Pass,NaN,Pass,NaN,Pass,NaN,Start of Day 2,schedule_A,schedule_A,8,3,2,individual,Zone4,timelimit_screen,999.601000000002,NaN,NaN,,NaN,0,1,0,NaN,NaN,1,NaN,NaN,trial_left,yellowBox.png,yellowBox.png,redBox.png,al1_con.png,8,7,NaN,NaN,0.15,0.85,0,1,0,0,Volatile,Stable,3.269,1.37,1.786,2.328,expert
36,1673464607073,11/01/2023 19:16:47,1673464607266,0,11/01/2023 19:16:47,111483,5,task-v1fs,repeat-u7ds#1->-repeat-l3h2#1->-repeat-pi7a#1->-repeat-apgu#1,26330787,BLIND,7766384,NaN,complete,NaN,63bdb64bc7338fb4af0e3822,computer,Desktop or Laptop,Chromium OS 15183.69.0,Chrome 108.0.0.0,1536x864,1536x864,Start of Day 2,SLS,90,B,NaN,NaN,NaN,Pass,End of Day 1,Pass,NaN,Pass,NaN,Pass,NaN,Start of Day 2,schedule_A,schedule_A,8,3,3,offer,Zone2,response_button_image,835.300000011921,NaN,NaN,yellowBox.png,1,1,0,0,NaN,NaN,NaN,NaN,NaN,trial_left,yellowBox.png,yellowBox.png,redBox.png,al1_con.png,8,7,NaN,NaN,0.15,0.85,0,1,0,0,Volatile,Stable,3.269,1.37,1.786,2.328,expert
37,1673464609066,11/01/2023 19:16:49,1673464609262,0,11/01/2023 19:16:49,111483,5,task-v1fs,repeat-u7ds#1->-repeat-l3h2#1->-repeat-pi7a#1->-repeat-apgu#1,26330787,BLIND,7766384,NaN,complete,NaN,63bdb64bc7338fb4af0e3822,computer,Desktop or Laptop,Chromium OS 15183.69.0,Chrome 108.0.0.0,1536x864,1536x864,Start of Day 2,SLS,90,B,NaN,NaN,NaN,Pass,End of Day 1,Pass,NaN,Pass,NaN,Pass,NaN,Start of Day 2,schedule_A,schedule_A,8,3,4,feedback_l,Zone7,timelimit_screen,1999.252,NaN,NaN,,NaN,0,1,0,NaN,NaN,1,NaN,NaN,trial_left,yellowBox.png,yellowBox.png,redBox.png,al1_con.png,8,7,NaN,NaN,0.15,0.85,0,1,0,0,Volatile,Stable,3.269,1.37,1.786,2.328,expert
38,1673464609207,11/01/2023 19:16:49,1673464609412,0,11/01/2023 19:16:49,111483,5,task-v1fs,repeat-u7ds#1->-repeat-l3h2#1->-repeat-pi7a#1->-repeat-apgu#1,26330787,BLIND,7766384,NaN,complete,NaN,63bdb64bc7338fb4af0e3822,computer,Desktop or Laptop,Chromium OS 15183.69.0,Chrome 108.0.0.0,1536x864,1536x864,Start of Day 2,SLS,90,B,NaN,NaN,NaN,Pass,End of Day 1,Pass,NaN,Pass,NaN,Pass,NaN,Start of Day 2,schedule_A,schedule_A,8,3,6,end,Zone1,timelimit_screen,150.061000000002,NaN,NaN,,NaN,0,1,0,NaN,NaN,1,NaN,NaN,trial_left,yellowBox.png,yellowBox.png,redBox.png,al1_con.png,8,7,NaN,NaN,0.15,0.85,0,1,0,0,Volatile,Stable,3.269,1.37,1.786,2.328,expert
39,1673464609713,11/01/2023 19:16:49,1673464609915,0,11/01/2023 19:16:49,111483,5,task-v1fs,repeat-u7ds#1->-repeat-l3h2#1->-repeat-pi7a#1->-repeat-apgu#1,26330787,BLIND,7766384,NaN,complete,NaN,63bdb64bc7338fb4af0e3822,computer,Desktop or Laptop,Chromium OS 15183.69.0,Chrome 108.0.0.0,1536x864,1536x864,Start of Day 2,SLS,90,B,NaN,NaN,NaN,Pass,End of Day 1,Pass,NaN,Pass,NaN,Pass,NaN,Start of Day 2,schedule_A,schedule_A,9,4,1,Screen 1,Zone1,continue_button,464,NaN,NaN,,NaN,0,1,0,NaN,NaN,NaN,NaN,NaN,trial_left,yellowBox.png,redBox.png,yellowBox.png,al1_con.png,9,8,NaN,NaN,0.15,0.85,0,0,1,1,Volatile,Stable,3.975,0.576,1.256,1.807,expert
40,1673464610721,11/01/2023 19:16:50,1673464610911,0,11/01/2023 19:16:50,111483,5,task-v1fs,repeat-u7ds#1->-repeat-l3h2#1->-repeat-pi7a#1->-repeat-apgu#1,26330787,BLIND,7766384,NaN,complete,NaN,63bdb64bc7338fb4af0e3822,computer,Desktop or Laptop,Chromium OS 15183.69.0,Chrome 108.0.0.0,1536x864,1536x864,Start of Day 2,SLS,90,B,NaN,NaN,NaN,Pass,End of Day 1,Pass,NaN,Pass,NaN,Pass,NaN,Start of Day 2,schedule_A,schedule_A,9,4,2,individual,Zone4,timelimit_screen,999.594999999994,NaN,NaN,,NaN,0,1,0,NaN,NaN,1,NaN,NaN,trial_left,yellowBox.png,redBox.png,yellowBox.png,al1_con.png,9,8,NaN,NaN,0.15,0.85,0,0,1,1,Volatile,Stable,3.975,0.576,1.256,1.807,expert
41,1673464611712,11/01/2023 19:16:51,1673464611678,0,11/01/2023 19:16:51,111483,5,task-v1fs,repeat-u7ds#1->-repeat-l3h2#1->-repeat-pi7a#1->-repeat-apgu#1,26330787,BLIND,7766384,NaN,complete,NaN,63bdb64bc7338fb4af0e3822,computer,Desktop or Laptop,Chromium OS 15183.69.0,Chrome 108.0.0.0,1536x864,1536x864,Start of Day 2,SLS,90,B,NaN,NaN,NaN,Pass,End of Day 1,Pass,NaN,Pass,NaN,Pass,NaN,Start of Day 2,schedule_A,schedule_A,9,4,3,offer,Zone2,response_button_image,745.699999988079,NaN,NaN,redBox.png,1,0,1,0,NaN,NaN,NaN,NaN,NaN,trial_left,yellowBox.png,redBox.png,yellowBox.png,al1_con.png,9,8,NaN,NaN,0.15,0.85,0,0,1,1,Volatile,Stable,3.975,0.576,1.256,1.807,expert
42,1673464613466,11/01/2023 19:16:53,1673464613660,0,11/01/2023 19:16:53,111483,5,task-v1fs,repeat-u7ds#1->-repeat-l3h2#1->-repeat-pi7a#1->-repeat-apgu#1,26330787,BLIND,7766384,NaN,complete,NaN,63bdb64bc7338fb4af0e3822,computer,Desktop or Laptop,Chromium OS 15183.69.0,Chrome 108.0.0.0,1536x864,1536x864,Start of Day 2,SLS,90,B,NaN,NaN,NaN,Pass,End of Day 1,Pass,NaN,Pass,NaN,Pass,NaN,Start of Day 2,schedule_A,schedule_A,9,4,4,feedback_l,Zone7,timelimit_screen,1999.225,NaN,NaN,,NaN,0,1,0,NaN,NaN,1,NaN,NaN,trial_left,yellowBox.png,redBox.png,yellowBox.png,al1_con.png,9,8,NaN,NaN,0.15,0.85,0,0,1,1,Volatile,Stable,3.975,0.576,1.256,1.807,expert
43,1673464613617,11/01/2023 19:16:53,1673464613810,0,11/01/2023 19:16:53,111483,5,task-v1fs,repeat-u7ds#1->-repeat-l3h2#1->-repeat-pi7a#1->-repeat-apgu#1,26330787,BLIND,7766384,NaN,complete,NaN,63bdb64bc7338fb4af0e3822,computer,Desktop or Laptop,Chromium OS 15183.69.0,Chrome 108.0.0.0,1536x864,1536x864,Start of Day 2,SLS,90,B,NaN,NaN,NaN,Pass,End of Day 1,Pass,NaN,Pass,NaN,Pass,NaN,Start of Day 2,schedule_A,schedule_A,9,4,6,end,Zone1,timelimit_screen,150.063000000002,NaN,NaN,,NaN,0,1,0,NaN,NaN,1,NaN,NaN,trial_left,yellowBox.png,redBox.png,yellowBox.png,al1_con.png,9,8,NaN,NaN,0.15,0.85,0,0,1,1,Volatile,Stable,3.975,0.576,1.256,1.807,expert
44,1673464614404,11/01/2023 19:16:54,1673464614613,0,11/01/2023 19:16:54,111483,5,task-v1fs,repeat-u7ds#1->-repeat-l3h2#1->-repeat-pi7a#1->-repeat-apgu#1,26330787,BLIND,7766384,NaN,complete,NaN,63bdb64bc7338fb4af0e3822,computer,Desktop or Laptop,Chromium OS 15183.69.0,Chrome 108.0.0.0,1536x864,1536x864,Start of Day 2,SLS,90,B,NaN,NaN,NaN,Pass,End of Day 1,Pass,NaN,Pass,NaN,Pass,NaN,Start of Day 2,schedule_A,schedule_A,10,5,1,Screen 1,Zone1,continue_button,769.79999999702,NaN,NaN,,NaN,0,1,0,NaN,NaN,NaN,NaN,NaN,trial_right,redBox.png,redBox.png,yellowBox.png,al1_con.png,10,9,NaN,NaN,0.15,0.85,1,0,0,1,Volatile,Stable,3.798,1.055,1.559,2.042,expert
45,1673464615412,11/01/2023 19:16:55,1673464615610,0,11/01/2023 19:16:55,111483,5,task-v1fs,repeat-u7ds#1->-repeat-l3h2#1->-repeat-pi7a#1->-repeat-apgu#1,26330787,BLIND,7766384,NaN,complete,NaN,63bdb64bc7338fb4af0e3822,computer,Desktop or Laptop,Chromium OS 15183.69.0,Chrome 108.0.0.0,1536x864,1536x864,Start of Day 2,SLS,90,B,NaN,NaN,NaN,Pass,End of Day 1,Pass,NaN,Pass,NaN,Pass,NaN,Start of Day 2,schedule_A,schedule_A,10,5,2,individual,Zone4,timelimit_screen,999.606,NaN,NaN,,NaN,0,1,0,NaN,NaN,1,NaN,NaN,trial_right,redBox.png,redBox.png,yellowBox.png,al1_con.png,10,9,NaN,NaN,0.15,0.85,1,0,0,1,Volatile,Stable,3.798,1.055,1.559,2.042,expert
46,1673464616362,11/01/2023 19:16:56,1673464616557,0,11/01/2023 19:16:56,111483,5,task-v1fs,repeat-u7ds#1->-repeat-l3h2#1->-repeat-pi7a#1->-repeat-apgu#1,26330787,BLIND,7766384,NaN,complete,NaN,63bdb64bc7338fb4af0e3822,computer,Desktop or Laptop,Chromium OS 15183.69.0,Chrome 108.0.0.0,1536x864,1536x864,Start of Day 2,SLS,90,B,NaN,NaN,NaN,Pass,End of Day 1,Pass,NaN,Pass,NaN,Pass,NaN,Start of Day 2,schedule_A,schedule_A,10,5,3,offer,Zone3,response_button_image,931.20000000298,NaN,NaN,yellowBox.png,1,0,1,0,NaN,NaN,NaN,NaN,NaN,trial_right,redBox.png,redBox.png,yellowBox.png,al1_con.png,10,9,NaN,NaN,0.15,0.85,1,0,0,1,Volatile,Stable,3.798,1.055,1.559,2.042,expert
47,1673464618349,11/01/2023 19:16:58,1673464618543,0,11/01/2023 19:16:58,111483,5,task-v1fs,repeat-u7ds#1->-repeat-l3h2#1->-repeat-pi7a#1->-repeat-apgu#1,26330787,BLIND,7766384,NaN,complete,NaN,63bdb64bc7338fb4af0e3822,computer,Desktop or Laptop,Chromium OS 15183.69.0,Chrome 108.0.0.0,1536x864,1536x864,Start of Day 2,SLS,90,B,NaN,NaN,NaN,Pass,End of Day 1,Pass,NaN,Pass,NaN,Pass,NaN,Start of Day 2,schedule_A,schedule_A,10,5,5,feedback_r,Zone7,timelimit_screen,1999.261,NaN,NaN,,NaN,0,1,0,NaN,NaN,1,NaN,NaN,trial_right,redBox.png,redBox.png,yellowBox.png,al1_con.png,10,9,NaN,NaN,0.15,0.85,1,0,0,1,Volatile,Stable,3.798,1.055,1.559,2.042,expert
48,1673464618479,11/01/2023 19:16:58,1673464618692,0,11/01/2023 19:16:58,111483,5,task-v1fs,repeat-u7ds#1->-repeat-l3h2#1->-repeat-pi7a#1->-repeat-apgu#1,26330787,BLIND,7766384,NaN,complete,NaN,63bdb64bc7338fb4af0e3822,computer,Desktop or Laptop,Chromium OS 15183.69.0,Chrome 108.0.0.0,1536x864,1536x864,Start of Day 2,SLS,90,B,NaN,NaN,NaN,Pass,End of Day 1,Pass,NaN,Pass,NaN,Pass,NaN,Start of Day 2,schedule_A,schedule_A,10,5,6,end,Zone1,timelimit_screen,150.063000000002,NaN,NaN,,NaN,0,1,0,NaN,NaN,1,NaN,NaN,trial_right,redBox.png,redBox.png,yellowBox.png,al1_con.png,10,9,NaN,NaN,0.15,0.85,1,0,0,1,Volatile,Stable,3.798,1.055,1.559,2.042,expert
49,1673464619152,11/01/2023 19:16:59,1673464619347,0,11/01/2023 19:16:59,111483,5,task-v1fs,repeat-u7ds#1->-repeat-l3h2#1->-repeat-pi7a#1->-repeat-apgu#1,26330787,BLIND,7766384,NaN,complete,NaN,63bdb64bc7338fb4af0e3822,computer,Desktop or Laptop,Chromium OS 15183.69.0,Chrome 108.0.0.0,1536x864,1536x864,Start of Day 2,SLS,90,B,NaN,NaN,NaN,Pass,End of Day 1,Pass,NaN,Pass,NaN,Pass,NaN,Start of Day 2,schedule_A,schedule_A,11,6,1,Screen 1,Zone1,continue_button,624,NaN,NaN,,NaN,0,1,0,NaN,NaN,NaN,NaN,NaN,trial_right,yellowBox.png,redBox.png,yellowBox.png,al1_con.png,21,10,NaN,NaN,0.15,0.85,0,1,0,1,Volatile,Stable,1.857,0.5,1.294,2.916,expert
50,1673464620133,11/01/2023 19:17:00,1673464620342,0,11/01/2023 19:17:00,111483,5,task-v1fs,repeat-u7ds#1->-repeat-l3h2#1->-repeat-pi7a#1->-repeat-apgu#1,26330787,BLIND,7766384,NaN,complete,NaN,63bdb64bc7338fb4af0e3822,computer,Desktop or Laptop,Chromium OS 15183.69.0,Chrome 108.0.0.0,1536x864,1536x864,Start of Day 2,SLS,90,B,NaN,NaN,NaN,Pass,End of Day 1,Pass,NaN,Pass,NaN,Pass,NaN,Start of Day 2,schedule_A,schedule_A,11,6,2,individual,Zone4,timelimit_screen,999.594000000005,NaN,NaN,,NaN,0,1,0,NaN,NaN,1,NaN,NaN,trial_right,yellowBox.png,redBox.png,yellowBox.png,al1_con.png,21,10,NaN,NaN,0.15,0.85,0,1,0,1,Volatile,Stable,1.857,0.5,1.294,2.916,expert
51,1673464621000,11/01/2023 19:17:01,1673464621209,0,11/01/2023 19:17:01,111483,5,task-v1fs,repeat-u7ds#1->-repeat-l3h2#1->-repeat-pi7a#1->-repeat-apgu#1,26330787,BLIND,7766384,NaN,complete,NaN,63bdb64bc7338fb4af0e3822,computer,Desktop or Laptop,Chromium OS 15183.69.0,Chrome 108.0.0.0,1536x864,1536x864,Start of Day 2,SLS,90,B,NaN,NaN,NaN,Pass,End of Day 1,Pass,NaN,Pass,NaN,Pass,NaN,Start of Day 2,schedule_A,schedule_A,11,6,3,offer,Zone2,response_button_image,849.79999999702,NaN,NaN,redBox.png,1,0,1,0,NaN,NaN,NaN,NaN,NaN,trial_right,yellowBox.png,redBox.png,yellowBox.png,al1_con.png,21,10,NaN,NaN,0.15,0.85,0,1,0,1,Volatile,Stable,1.857,0.5,1.294,2.916,expert
52,1673464623190,11/01/2023 19:17:03,1673464623208,0,11/01/2023 19:17:03,111483,5,task-v1fs,repeat-u7ds#1->-repeat-l3h2#1->-repeat-pi7a#1->-repeat-apgu#1,26330787,BLIND,7766384,NaN,complete,NaN,63bdb64bc7338fb4af0e3822,computer,Desktop or Laptop,Chromium OS 15183.69.0,Chrome 108.0.0.0,1536x864,1536x864,Start of Day 2,SLS,90,B,NaN,NaN,NaN,Pass,End of Day 1,Pass,NaN,Pass,NaN,Pass,NaN,Start of Day 2,schedule_A,schedule_A,11,6,4,feedback_l,Zone7,timelimit_screen,1999.24,NaN,NaN,,NaN,0,1,0,NaN,NaN,1,NaN,NaN,trial_right,yellowBox.png,redBox.png,yellowBox.png,al1_con.png,21,10,NaN,NaN,0.15,0.85,0,1,0,1,Volatile,Stable,1.857,0.5,1.294,2.916,expert
53,1673464623291,11/01/2023 19:17:03,1673464623357,0,11/01/2023 19:17:03,111483,5,task-v1fs,repeat-u7ds#1->-repeat-l3h2#1->-repeat-pi7a#1->-repeat-apgu#1,26330787,BLIND,7766384,NaN,complete,NaN,63bdb64bc7338fb4af0e3822,computer,Desktop or Laptop,Chromium OS 15183.69.0,Chrome 108.0.0.0,1536x864,1536x864,Start of Day 2,SLS,90,B,NaN,NaN,NaN,Pass,End of Day 1,Pass,NaN,Pass,NaN,Pass,NaN,Start of Day 2,schedule_A,schedule_A,11,6,6,end,Zone1,timelimit_screen,150.077000000005,NaN,NaN,,NaN,0,1,0,NaN,NaN,1,NaN,NaN,trial_right,yellowBox.png,redBox.png,yellowBox.png,al1_con.png,21,10,NaN,NaN,0.15,0.85,0,1,0,1,Volatile,Stable,1.857,0.5,1.294,2.916,expert
54,1673464623860,11/01/2023 19:17:03,1673464624068,0,11/01/2023 19:17:04,111483,5,task-v1fs,repeat-u7ds#1->-repeat-l3h2#1->-repeat-pi7a#1->-repeat-apgu#1,26330787,BLIND,7766384,NaN,complete,NaN,63bdb64bc7338fb4af0e3822,computer,Desktop or Laptop,Chromium OS 15183.69.0,Chrome 108.0.0.0,1536x864,1536x864,Start of Day 2,SLS,90,B,NaN,NaN,NaN,Pass,End of Day 1,Pass,NaN,Pass,NaN,Pass,NaN,Start of Day 2,schedule_A,schedule_A,12,5,1,Screen 1,Zone1,continue_button,677.20000000298,NaN,NaN,,NaN,0,1,0,NaN,NaN,NaN,NaN,NaN,trial_left,redBox.png,redBox.png,yellowBox.png,al1_con.png,22,11,NaN,NaN,0.85,0.85,1,1,1,1,Volatile,Stable,1.126,1.849,1.483,1.689,expert
55,1673464624860,11/01/2023 19:17:04,1673464625056,0,11/01/2023 19:17:05,111483,5,task-v1fs,repeat-u7ds#1->-repeat-l3h2#1->-repeat-pi7a#1->-repeat-apgu#1,26330787,BLIND,7766384,NaN,complete,NaN,63bdb64bc7338fb4af0e3822,computer,Desktop or Laptop,Chromium OS 15183.69.0,Chrome 108.0.0.0,1536x864,1536x864,Start of Day 2,SLS,90,B,NaN,NaN,NaN,Pass,End of Day 1,Pass,NaN,Pass,NaN,Pass,NaN,Start of Day 2,schedule_A,schedule_A,12,5,2,individual,Zone4,timelimit_screen,999.604999999996,NaN,NaN,,NaN,0,1,0,NaN,NaN,1,NaN,NaN,trial_left,redBox.png,redBox.png,yellowBox.png,al1_con.png,22,11,NaN,NaN,0.85,0.85,1,1,1,1,Volatile,Stable,1.126,1.849,1.483,1.689,expert
56,1673464625526,11/01/2023 19:17:05,1673464625731,0,11/01/2023 19:17:05,111483,5,task-v1fs,repeat-u7ds#1->-repeat-l3h2#1->-repeat-pi7a#1->-repeat-apgu#1,26330787,BLIND,7766384,NaN,complete,NaN,63bdb64bc7338fb4af0e3822,computer,Desktop or Laptop,Chromium OS 15183.69.0,Chrome 108.0.0.0,1536x864,1536x864,Start of Day 2,SLS,90,B,NaN,NaN,NaN,Pass,End of Day 1,Pass,NaN,Pass,NaN,Pass,NaN,Start of Day 2,schedule_A,schedule_A,12,5,3,offer,Zone2,response_button_image,654.70000000298,NaN,NaN,redBox.png,1,1,0,0,NaN,NaN,NaN,NaN,NaN,trial_left,redBox.png,redBox.png,yellowBox.png,al1_con.png,22,11,NaN,NaN,0.85,0.85,1,1,1,1,Volatile,Stable,1.126,1.849,1.483,1.689,expert
57,1673464627521,11/01/2023 19:17:07,1673464627723,0,11/01/2023 19:17:07,111483,5,task-v1fs,repeat-u7ds#1->-repeat-l3h2#1->-repeat-pi7a#1->-repeat-apgu#1,26330787,BLIND,7766384,NaN,complete,NaN,63bdb64bc7338fb4af0e3822,computer,Desktop or Laptop,Chromium OS 15183.69.0,Chrome 108.0.0.0,1536x864,1536x864,Start of Day 2,SLS,90,B,NaN,NaN,NaN,Pass,End of Day 1,Pass,NaN,Pass,NaN,Pass,NaN,Start of Day 2,schedule_A,schedule_A,12,5,4,feedback_l,Zone7,timelimit_screen,1999.254,NaN,NaN,,NaN,0,1,0,NaN,NaN,1,NaN,NaN,trial_left,redBox.png,redBox.png,yellowBox.png,al1_con.png,22,11,NaN,NaN,0.85,0.85,1,1,1,1,Volatile,Stable,1.126,1.849,1.483,1.689,expert
58,1673464627659,11/01/2023 19:17:07,1673464627872,0,11/01/2023 19:17:07,111483,5,task-v1fs,repeat-u7ds#1->-repeat-l3h2#1->-repeat-pi7a#1->-repeat-apgu#1,26330787,BLIND,7766384,NaN,complete,NaN,63bdb64bc7338fb4af0e3822,computer,Desktop or Laptop,Chromium OS 15183.69.0,Chrome 108.0.0.0,1536x864,1536x864,Start of Day 2,SLS,90,B,NaN,NaN,NaN,Pass,End of Day 1,Pass,NaN,Pass,NaN,Pass,NaN,Start of Day 2,schedule_A,schedule_A,12,5,6,end,Zone1,timelimit_screen,150.057999999997,NaN,NaN,,NaN,0,1,0,NaN,NaN,1,NaN,NaN,trial_left,redBox.png,redBox.png,yellowBox.png,al1_con.png,22,11,NaN,NaN,0.85,0.85,1,1,1,1,Volatile,Stable,1.126,1.849,1.483,1.689,expert
59,1673464627951,11/01/2023 19:17:07,1673464628151,0,11/01/2023 19:17:08,111483,5,task-v1fs,repeat-u7ds#1->-repeat-l3h2#1->-repeat-pi7a#1->-repeat-apgu#1,26330787,BLIND,7766384,NaN,complete,NaN,63bdb64bc7338fb4af0e3822,computer,Desktop or Laptop,Chromium OS 15183.69.0,Chrome 108.0.0.0,1536x864,1536x864,Start of Day 2,SLS,90,B,NaN,NaN,NaN,Pass,End of Day 1,Pass,NaN,Pass,NaN,Pass,NaN,Start of Day 2,schedule_A,schedule_A,13,7,1,Screen 1,Zone1,continue_button,253.09999999404,NaN,NaN,,NaN,0,1,0,NaN,NaN,NaN,NaN,NaN,trial_right,redBox.png,yellowBox.png,redBox.png,al1_con.png,23,12,NaN,NaN,0.85,0.85,1,1,1,0,Volatile,Stable,2.361,0.992,0.5,1.975,expert
60,1673464628939,11/01/2023 19:17:08,1673464629139,0,11/01/2023 19:17:09,111483,5,task-v1fs,repeat-u7ds#1->-repeat-l3h2#1->-repeat-pi7a#1->-repeat-apgu#1,26330787,BLIND,7766384,NaN,complete,NaN,63bdb64bc7338fb4af0e3822,computer,Desktop or Laptop,Chromium OS 15183.69.0,Chrome 108.0.0.0,1536x864,1536x864,Start of Day 2,SLS,90,B,NaN,NaN,NaN,Pass,End of Day 1,Pass,NaN,Pass,NaN,Pass,NaN,Start of Day 2,schedule_A,schedule_A,13,7,2,individual,Zone4,timelimit_screen,999.603999999999,NaN,NaN,,NaN,0,1,0,NaN,NaN,1,NaN,NaN,trial_right,redBox.png,yellowBox.png,redBox.png,al1_con.png,23,12,NaN,NaN,0.85,0.85,1,1,1,0,Volatile,Stable,2.361,0.992,0.5,1.975,expert
61,1673464630109,11/01/2023 19:17:10,1673464630313,0,11/01/2023 19:17:10,111483,5,task-v1fs,repeat-u7ds#1->-repeat-l3h2#1->-repeat-pi7a#1->-repeat-apgu#1,26330787,BLIND,7766384,NaN,complete,NaN,63bdb64bc7338fb4af0e3822,computer,Desktop or Laptop,Chromium OS 15183.69.0,Chrome 108.0.0.0,1536x864,1536x864,Start of Day 2,SLS,90,B,NaN,NaN,NaN,Pass,End of Day 1,Pass,NaN,Pass,NaN,Pass,NaN,Start of Day 2,schedule_A,schedule_A,13,7,3,offer,Zone3,response_button_image,1153.79999999702,NaN,NaN,redBox.png,1,1,0,0,NaN,NaN,NaN,NaN,NaN,trial_right,redBox.png,yellowBox.png,redBox.png,al1_con.png,23,12,NaN,NaN,0.85,0.85,1,1,1,0,Volatile,Stable,2.361,0.992,0.5,1.975,expert
62,1673464632297,11/01/2023 19:17:12,1673464632304,0,11/01/2023 19:17:12,111483,5,task-v1fs,repeat-u7ds#1->-repeat-l3h2#1->-repeat-pi7a#1->-repeat-apgu#1,26330787,BLIND,7766384,NaN,complete,NaN,63bdb64bc7338fb4af0e3822,computer,Desktop or Laptop,Chromium OS 15183.69.0,Chrome 108.0.0.0,1536x864,1536x864,Start of Day 2,SLS,90,B,NaN,NaN,NaN,Pass,End of Day 1,Pass,NaN,Pass,NaN,Pass,NaN,Start of Day 2,schedule_A,schedule_A,13,7,5,feedback_r,Zone7,timelimit_screen,1999.265,NaN,NaN,,NaN,0,1,0,NaN,NaN,1,NaN,NaN,trial_right,redBox.png,yellowBox.png,redBox.png,al1_con.png,23,12,NaN,NaN,0.85,0.85,1,1,1,0,Volatile,Stable,2.361,0.992,0.5,1.975,expert
63,1673464632395,11/01/2023 19:17:12,1673464632454,0,11/01/2023 19:17:12,111483,5,task-v1fs,repeat-u7ds#1->-repeat-l3h2#1->-repeat-pi7a#1->-repeat-apgu#1,26330787,BLIND,7766384,NaN,complete,NaN,63bdb64bc7338fb4af0e3822,computer,Desktop or Laptop,Chromium OS 15183.69.0,Chrome 108.0.0.0,1536x864,1536x864,Start of Day 2,SLS,90,B,NaN,NaN,NaN,Pass,End of Day 1,Pass,NaN,Pass,NaN,Pass,NaN,Start of Day 2,schedule_A,schedule_A,13,7,6,end,Zone1,timelimit_screen,150.059999999998,NaN,NaN,,NaN,0,1,0,NaN,NaN,1,NaN,NaN,trial_right,redBox.png,yellowBox.png,redBox.png,al1_con.png,23,12,NaN,NaN,0.85,0.85,1,1,1,0,Volatile,Stable,2.361,0.992,0.5,1.975,expert
64,1673464633091,11/01/2023 19:17:13,1673464633291,0,11/01/2023 19:17:13,111483,5,task-v1fs,repeat-u7ds#1->-repeat-l3h2#1->-repeat-pi7a#1->-repeat-apgu#1,26330787,BLIND,7766384,NaN,complete,NaN,63bdb64bc7338fb4af0e3822,computer,Desktop or Laptop,Chromium OS 15183.69.0,Chrome 108.0.0.0,1536x864,1536x864,Start of Day 2,SLS,90,B,NaN,NaN,NaN,Pass,End of Day 1,Pass,NaN,Pass,NaN,Pass,NaN,Start of Day 2,schedule_A,schedule_A,14,8,1,Screen 1,Zone1,continue_button,812.5,NaN,NaN,,NaN,0,1,0,NaN,NaN,NaN,NaN,NaN,trial_right,redBox.png,redBox.png,yellowBox.png,al1_con.png,24,13,NaN,NaN,0.85,0.85,1,0,0,1,Volatile,Stable,1.05,1.95,1.319,1.487,expert
65,1673464634077,11/01/2023 19:17:14,1673464634287,0,11/01/2023 19:17:14,111483,5,task-v1fs,repeat-u7ds#1->-repeat-l3h2#1->-repeat-pi7a#1->-repeat-apgu#1,26330787,BLIND,7766384,NaN,complete,NaN,63bdb64bc7338fb4af0e3822,computer,Desktop or Laptop,Chromium OS 15183.69.0,Chrome 108.0.0.0,1536x864,1536x864,Start of Day 2,SLS,90,B,NaN,NaN,NaN,Pass,End of Day 1,Pass,NaN,Pass,NaN,Pass,NaN,Start of Day 2,schedule_A,schedule_A,14,8,2,individual,Zone4,timelimit_screen,999.607000000004,NaN,NaN,,NaN,0,1,0,NaN,NaN,1,NaN,NaN,trial_right,redBox.png,redBox.png,yellowBox.png,al1_con.png,24,13,NaN,NaN,0.85,0.85,1,0,0,1,Volatile,Stable,1.05,1.95,1.319,1.487,expert
66,1673464634950,11/01/2023 19:17:14,1673464635153,0,11/01/2023 19:17:15,111483,5,task-v1fs,repeat-u7ds#1->-repeat-l3h2#1->-repeat-pi7a#1->-repeat-apgu#1,26330787,BLIND,7766384,NaN,complete,NaN,63bdb64bc7338fb4af0e3822,computer,Desktop or Laptop,Chromium OS 15183.69.0,Chrome 108.0.0.0,1536x864,1536x864,Start of Day 2,SLS,90,B,NaN,NaN,NaN,Pass,End of Day 1,Pass,NaN,Pass,NaN,Pass,NaN,Start of Day 2,schedule_A,schedule_A,14,8,3,offer,Zone3,response_button_image,841.79999999702,NaN,NaN,yellowBox.png,1,0,1,0,NaN,NaN,NaN,NaN,NaN,trial_right,redBox.png,redBox.png,yellowBox.png,al1_con.png,24,13,NaN,NaN,0.85,0.85,1,0,0,1,Volatile,Stable,1.05,1.95,1.319,1.487,expert
67,1673464636933,11/01/2023 19:17:16,1673464637136,0,11/01/2023 19:17:17,111483,5,task-v1fs,repeat-u7ds#1->-repeat-l3h2#1->-repeat-pi7a#1->-repeat-apgu#1,26330787,BLIND,7766384,NaN,complete,NaN,63bdb64bc7338fb4af0e3822,computer,Desktop or Laptop,Chromium OS 15183.69.0,Chrome 108.0.0.0,1536x864,1536x864,Start of Day 2,SLS,90,B,NaN,NaN,NaN,Pass,End of Day 1,Pass,NaN,Pass,NaN,Pass,NaN,Start of Day 2,schedule_A,schedule_A,14,8,5,feedback_r,Zone7,timelimit_screen,1999.255,NaN,NaN,,NaN,0,1,0,NaN,NaN,1,NaN,NaN,trial_right,redBox.png,redBox.png,yellowBox.png,al1_con.png,24,13,NaN,NaN,0.85,0.85,1,0,0,1,Volatile,Stable,1.05,1.95,1.319,1.487,expert
68,1673464637088,11/01/2023 19:17:17,1673464637286,0,11/01/2023 19:17:17,111483,5,task-v1fs,repeat-u7ds#1->-repeat-l3h2#1->-repeat-pi7a#1->-repeat-apgu#1,26330787,BLIND,7766384,NaN,complete,NaN,63bdb64bc7338fb4af0e3822,computer,Desktop or Laptop,Chromium OS 15183.69.0,Chrome 108.0.0.0,1536x864,1536x864,Start of Day 2,SLS,90,B,NaN,NaN,NaN,Pass,End of Day 1,Pass,NaN,Pass,NaN,Pass,NaN,Start of Day 2,schedule_A,schedule_A,14,8,6,end,Zone1,timelimit_screen,150.054999999993,NaN,NaN,,NaN,0,1,0,NaN,NaN,1,NaN,NaN,trial_right,redBox.png,redBox.png,yellowBox.png,al1_con.png,24,13,NaN,NaN,0.85,0.85,1,0,0,1,Volatile,Stable,1.05,1.95,1.319,1.487,expert
69,1673464637731,11/01/2023 19:17:17,1673464637931,0,11/01/2023 19:17:17,111483,5,task-v1fs,repeat-u7ds#1->-repeat-l3h2#1->-repeat-pi7a#1->-repeat-apgu#1,26330787,BLIND,7766384,NaN,complete,NaN,63bdb64bc7338fb4af0e3822,computer,Desktop or Laptop,Chromium OS 15183.69.0,Chrome 108.0.0.0,1536x864,1536x864,Start of Day 2,SLS,90,B,NaN,NaN,NaN,Pass,End of Day 1,Pass,NaN,Pass,NaN,Pass,NaN,Start of Day 2,schedule_A,schedule_A,15,9,1,Screen 1,Zone1,continue_button,617.29999999702,NaN,NaN,,NaN,0,1,0,NaN,NaN,NaN,NaN,NaN,trial_right,redBox.png,yellowBox.png,redBox.png,al1_con.png,25,14,NaN,NaN,0.85,0.85,1,1,1,0,Volatile,Stable,3.395,0.84,0.803,1.252,expert
70,1673464638716,11/01/2023 19:17:18,1673464638919,0,11/01/2023 19:17:18,111483,5,task-v1fs,repeat-u7ds#1->-repeat-l3h2#1->-repeat-pi7a#1->-repeat-apgu#1,26330787,BLIND,7766384,NaN,complete,NaN,63bdb64bc7338fb4af0e3822,computer,Desktop or Laptop,Chromium OS 15183.69.0,Chrome 108.0.0.0,1536x864,1536x864,Start of Day 2,SLS,90,B,NaN,NaN,NaN,Pass,End of Day 1,Pass,NaN,Pass,NaN,Pass,NaN,Start of Day 2,schedule_A,schedule_A,15,9,2,individual,Zone4,timelimit_screen,999.603999999992,NaN,NaN,,NaN,0,1,0,NaN,NaN,1,NaN,NaN,trial_right,redBox.png,yellowBox.png,redBox.png,al1_con.png,25,14,NaN,NaN,0.85,0.85,1,1,1,0,Volatile,Stable,3.395,0.84,0.803,1.252,expert
71,1673464639600,11/01/2023 19:17:19,1673464639813,0,11/01/2023 19:17:19,111483,5,task-v1fs,repeat-u7ds#1->-repeat-l3h2#1->-repeat-pi7a#1->-repeat-apgu#1,26330787,BLIND,7766384,NaN,complete,NaN,63bdb64bc7338fb4af0e3822,computer,Desktop or Laptop,Chromium OS 15183.69.0,Chrome 108.0.0.0,1536x864,1536x864,Start of Day 2,SLS,90,B,NaN,NaN,NaN,Pass,End of Day 1,Pass,NaN,Pass,NaN,Pass,NaN,Start of Day 2,schedule_A,schedule_A,15,9,3,offer,Zone3,response_button_image,876.699999988079,NaN,NaN,redBox.png,1,1,0,0,NaN,NaN,NaN,NaN,NaN,trial_right,redBox.png,yellowBox.png,redBox.png,al1_con.png,25,14,NaN,NaN,0.85,0.85,1,1,1,0,Volatile,Stable,3.395,0.84,0.803,1.252,expert
72,1673464641604,11/01/2023 19:17:21,1673464641801,0,11/01/2023 19:17:21,111483,5,task-v1fs,repeat-u7ds#1->-repeat-l3h2#1->-repeat-pi7a#1->-repeat-apgu#1,26330787,BLIND,7766384,NaN,complete,NaN,63bdb64bc7338fb4af0e3822,computer,Desktop or Laptop,Chromium OS 15183.69.0,Chrome 108.0.0.0,1536x864,1536x864,Start of Day 2,SLS,90,B,NaN,NaN,NaN,Pass,End of Day 1,Pass,NaN,Pass,NaN,Pass,NaN,Start of Day 2,schedule_A,schedule_A,15,9,5,feedback_r,Zone7,timelimit_screen,1999.26700000001,NaN,NaN,,NaN,0,1,0,NaN,NaN,1,NaN,NaN,trial_right,redBox.png,yellowBox.png,redBox.png,al1_con.png,25,14,NaN,NaN,0.85,0.85,1,1,1,0,Volatile,Stable,3.395,0.84,0.803,1.252,expert
73,1673464641746,11/01/2023 19:17:21,1673464641951,0,11/01/2023 19:17:21,111483,5,task-v1fs,repeat-u7ds#1->-repeat-l3h2#1->-repeat-pi7a#1->-repeat-apgu#1,26330787,BLIND,7766384,NaN,complete,NaN,63bdb64bc7338fb4af0e3822,computer,Desktop or Laptop,Chromium OS 15183.69.0,Chrome 108.0.0.0,1536x864,1536x864,Start of Day 2,SLS,90,B,NaN,NaN,NaN,Pass,End of Day 1,Pass,NaN,Pass,NaN,Pass,NaN,Start of Day 2,schedule_A,schedule_A,15,9,6,end,Zone1,timelimit_screen,150.061999999991,NaN,NaN,,NaN,0,1,0,NaN,NaN,1,NaN,NaN,trial_right,redBox.png,yellowBox.png,redBox.png,al1_con.png,25,14,NaN,NaN,0.85,0.85,1,1,1,0,Volatile,Stable,3.395,0.84,0.803,1.252,expert
74,1673464642539,11/01/2023 19:17:22,1673464642482,0,11/01/2023 19:17:22,111483,5,task-v1fs,repeat-u7ds#1->-repeat-l3h2#1->-repeat-pi7a#1->-repeat-apgu#1,26330787,BLIND,7766384,NaN,complete,NaN,63bdb64bc7338fb4af0e3822,computer,Desktop or Laptop,Chromium OS 15183.69.0,Chrome 108.0.0.0,1536x864,1536x864,Start of Day 2,SLS,90,B,NaN,NaN,NaN,Pass,End of Day 1,Pass,NaN,Pass,NaN,Pass,NaN,Start of Day 2,schedule_A,schedule_A,16,10,1,Screen 1,Zone1,continue_button,504.600000008941,NaN,NaN,,NaN,0,1,0,NaN,NaN,NaN,NaN,NaN,trial_right,yellowBox.png,redBox.png,yellowBox.png,al1_con.png,26,15,NaN,NaN,0.85,0.85,0,1,0,1,Volatile,Stable,2.689,1.067,1.697,2.731,expert
75,1673464643257,11/01/2023 19:17:23,1673464643468,0,11/01/2023 19:17:23,111483,5,task-v1fs,repeat-u7ds#1->-repeat-l3h2#1->-repeat-pi7a#1->-repeat-apgu#1,26330787,BLIND,7766384,NaN,complete,NaN,63bdb64bc7338fb4af0e3822,computer,Desktop or Laptop,Chromium OS 15183.69.0,Chrome 108.0.0.0,1536x864,1536x864,Start of Day 2,SLS,90,B,NaN,NaN,NaN,Pass,End of Day 1,Pass,NaN,Pass,NaN,Pass,NaN,Start of Day 2,schedule_A,schedule_A,16,10,2,individual,Zone4,timelimit_screen,999.603999999992,NaN,NaN,,NaN,0,1,0,NaN,NaN,1,NaN,NaN,trial_right,yellowBox.png,redBox.png,yellowBox.png,al1_con.png,26,15,NaN,NaN,0.85,0.85,0,1,0,1,Volatile,Stable,2.689,1.067,1.697,2.731,expert
76,1673464644339,11/01/2023 19:17:24,1673464644534,0,11/01/2023 19:17:24,111483,5,task-v1fs,repeat-u7ds#1->-repeat-l3h2#1->-repeat-pi7a#1->-repeat-apgu#1,26330787,BLIND,7766384,NaN,complete,NaN,63bdb64bc7338fb4af0e3822,computer,Desktop or Laptop,Chromium OS 15183.69.0,Chrome 108.0.0.0,1536x864,1536x864,Start of Day 2,SLS,90,B,NaN,NaN,NaN,Pass,End of Day 1,Pass,NaN,Pass,NaN,Pass,NaN,Start of Day 2,schedule_A,schedule_A,16,10,3,offer,Zone2,response_button_image,1046.89999999106,NaN,NaN,redBox.png,1,0,1,0,NaN,NaN,NaN,NaN,NaN,trial_right,yellowBox.png,redBox.png,yellowBox.png,al1_con.png,26,15,NaN,NaN,0.85,0.85,0,1,0,1,Volatile,Stable,2.689,1.067,1.697,2.731,expert
77,1673464646329,11/01/2023 19:17:26,1673464646533,0,11/01/2023 19:17:26,111483,5,task-v1fs,repeat-u7ds#1->-repeat-l3h2#1->-repeat-pi7a#1->-repeat-apgu#1,26330787,BLIND,7766384,NaN,complete,NaN,63bdb64bc7338fb4af0e3822,computer,Desktop or Laptop,Chromium OS 15183.69.0,Chrome 108.0.0.0,1536x864,1536x864,Start of Day 2,SLS,90,B,NaN,NaN,NaN,Pass,End of Day 1,Pass,NaN,Pass,NaN,Pass,NaN,Start of Day 2,schedule_A,schedule_A,16,10,4,feedback_l,Zone7,timelimit_screen,1999.265,NaN,NaN,,NaN,0,1,0,NaN,NaN,1,NaN,NaN,trial_right,yellowBox.png,redBox.png,yellowBox.png,al1_con.png,26,15,NaN,NaN,0.85,0.85,0,1,0,1,Volatile,Stable,2.689,1.067,1.697,2.731,expert
78,1673464646478,11/01/2023 19:17:26,1673464646683,0,11/01/2023 19:17:26,111483,5,task-v1fs,repeat-u7ds#1->-repeat-l3h2#1->-repeat-pi7a#1->-repeat-apgu#1,26330787,BLIND,7766384,NaN,complete,NaN,63bdb64bc7338fb4af0e3822,computer,Desktop or Laptop,Chromium OS 15183.69.0,Chrome 108.0.0.0,1536x864,1536x864,Start of Day 2,SLS,90,B,NaN,NaN,NaN,Pass,End of Day 1,Pass,NaN,Pass,NaN,Pass,NaN,Start of Day 2,schedule_A,schedule_A,16,10,6,end,Zone1,timelimit_screen,150.059000000008,NaN,NaN,,NaN,0,1,0,NaN,NaN,1,NaN,NaN,trial_right,yellowBox.png,redBox.png,yellowBox.png,al1_con.png,26,15,NaN,NaN,0.85,0.85,0,1,0,1,Volatile,Stable,2.689,1.067,1.697,2.731,expert
79,1673464647139,11/01/2023 19:17:27,1673464647332,0,11/01/2023 19:17:27,111483,5,task-v1fs,repeat-u7ds#1->-repeat-l3h2#1->-repeat-pi7a#1->-repeat-apgu#1,26330787,BLIND,7766384,NaN,complete,NaN,63bdb64bc7338fb4af0e3822,computer,Desktop or Laptop,Chromium OS 15183.69.0,Chrome 108.0.0.0,1536x864,1536x864,Start of Day 2,SLS,90,B,NaN,NaN,NaN,Pass,End of Day 1,Pass,NaN,Pass,NaN,Pass,NaN,Start of Day 2,schedule_A,schedule_A,17,6,1,Screen 1,Zone1,continue_button,617.59999999404,NaN,NaN,,NaN,0,1,0,NaN,NaN,NaN,NaN,NaN,trial_left,yellowBox.png,yellowBox.png,redBox.png,al1_con.png,27,16,NaN,NaN,0.15,0.85,0,1,0,0,Volatile,Stable,1.378,0.689,0.878,2.076,expert
80,1673464648110,11/01/2023 19:17:28,1673464648315,0,11/01/2023 19:17:28,111483,5,task-v1fs,repeat-u7ds#1->-repeat-l3h2#1->-repeat-pi7a#1->-repeat-apgu#1,26330787,BLIND,7766384,NaN,complete,NaN,63bdb64bc7338fb4af0e3822,computer,Desktop or Laptop,Chromium OS 15183.69.0,Chrome 108.0.0.0,1536x864,1536x864,Start of Day 2,SLS,90,B,NaN,NaN,NaN,Pass,End of Day 1,Pass,NaN,Pass,NaN,Pass,NaN,Start of Day 2,schedule_A,schedule_A,17,6,2,individual,Zone4,timelimit_screen,999.62000000001,NaN,NaN,,NaN,0,1,0,NaN,NaN,1,NaN,NaN,trial_left,yellowBox.png,yellowBox.png,redBox.png,al1_con.png,27,16,NaN,NaN,0.15,0.85,0,1,0,0,Volatile,Stable,1.378,0.689,0.878,2.076,expert
81,1673464648733,11/01/2023 19:17:28,1673464648936,0,11/01/2023 19:17:28,111483,5,task-v1fs,repeat-u7ds#1->-repeat-l3h2#1->-repeat-pi7a#1->-repeat-apgu#1,26330787,BLIND,7766384,NaN,complete,NaN,63bdb64bc7338fb4af0e3822,computer,Desktop or Laptop,Chromium OS 15183.69.0,Chrome 108.0.0.0,1536x864,1536x864,Start of Day 2,SLS,90,B,NaN,NaN,NaN,Pass,End of Day 1,Pass,NaN,Pass,NaN,Pass,NaN,Start of Day 2,schedule_A,schedule_A,17,6,3,offer,Zone2,response_button_image,602.600000008941,NaN,NaN,yellowBox.png,1,1,0,0,NaN,NaN,NaN,NaN,NaN,trial_left,yellowBox.png,yellowBox.png,redBox.png,al1_con.png,27,16,NaN,NaN,0.15,0.85,0,1,0,0,Volatile,Stable,1.378,0.689,0.878,2.076,expert
82,1673464650737,11/01/2023 19:17:30,1673464650932,0,11/01/2023 19:17:30,111483,5,task-v1fs,repeat-u7ds#1->-repeat-l3h2#1->-repeat-pi7a#1->-repeat-apgu#1,26330787,BLIND,7766384,NaN,complete,NaN,63bdb64bc7338fb4af0e3822,computer,Desktop or Laptop,Chromium OS 15183.69.0,Chrome 108.0.0.0,1536x864,1536x864,Start of Day 2,SLS,90,B,NaN,NaN,NaN,Pass,End of Day 1,Pass,NaN,Pass,NaN,Pass,NaN,Start of Day 2,schedule_A,schedule_A,17,6,4,feedback_l,Zone7,timelimit_screen,1999.24100000001,NaN,NaN,,NaN,0,1,0,NaN,NaN,1,NaN,NaN,trial_left,yellowBox.png,yellowBox.png,redBox.png,al1_con.png,27,16,NaN,NaN,0.15,0.85,0,1,0,0,Volatile,Stable,1.378,0.689,0.878,2.076,expert
83,1673464650869,11/01/2023 19:17:30,1673464651081,0,11/01/2023 19:17:31,111483,5,task-v1fs,repeat-u7ds#1->-repeat-l3h2#1->-repeat-pi7a#1->-repeat-apgu#1,26330787,BLIND,7766384,NaN,complete,NaN,63bdb64bc7338fb4af0e3822,computer,Desktop or Laptop,Chromium OS 15183.69.0,Chrome 108.0.0.0,1536x864,1536x864,Start of Day 2,SLS,90,B,NaN,NaN,NaN,Pass,End of Day 1,Pass,NaN,Pass,NaN,Pass,NaN,Start of Day 2,schedule_A,schedule_A,17,6,6,end,Zone1,timelimit_screen,150.059999999998,NaN,NaN,,NaN,0,1,0,NaN,NaN,1,NaN,NaN,trial_left,yellowBox.png,yellowBox.png,redBox.png,al1_con.png,27,16,NaN,NaN,0.15,0.85,0,1,0,0,Volatile,Stable,1.378,0.689,0.878,2.076,expert
84,1673464651554,11/01/2023 19:17:31,1673464651764,0,11/01/2023 19:17:31,111483,5,task-v1fs,repeat-u7ds#1->-repeat-l3h2#1->-repeat-pi7a#1->-repeat-apgu#1,26330787,BLIND,7766384,NaN,complete,NaN,63bdb64bc7338fb4af0e3822,computer,Desktop or Laptop,Chromium OS 15183.69.0,Chrome 108.0.0.0,1536x864,1536x864,Start of Day 2,SLS,90,B,NaN,NaN,NaN,Pass,End of Day 1,Pass,NaN,Pass,NaN,Pass,NaN,Start of Day 2,schedule_A,schedule_A,18,11,1,Screen 1,Zone1,continue_button,646,NaN,NaN,,NaN,0,1,0,NaN,NaN,NaN,NaN,NaN,trial_right,yellowBox.png,redBox.png,yellowBox.png,al1_con.png,28,17,NaN,NaN,0.15,0.85,0,1,0,1,Volatile,Stable,2.714,0.739,1.975,1.134,expert
85,1673464652536,11/01/2023 19:17:32,1673464652748,0,11/01/2023 19:17:32,111483,5,task-v1fs,repeat-u7ds#1->-repeat-l3h2#1->-repeat-pi7a#1->-repeat-apgu#1,26330787,BLIND,7766384,NaN,complete,NaN,63bdb64bc7338fb4af0e3822,computer,Desktop or Laptop,Chromium OS 15183.69.0,Chrome 108.0.0.0,1536x864,1536x864,Start of Day 2,SLS,90,B,NaN,NaN,NaN,Pass,End of Day 1,Pass,NaN,Pass,NaN,Pass,NaN,Start of Day 2,schedule_A,schedule_A,18,11,2,individual,Zone4,timelimit_screen,999.608000000007,NaN,NaN,,NaN,0,1,0,NaN,NaN,1,NaN,NaN,trial_right,yellowBox.png,redBox.png,yellowBox.png,al1_con.png,28,17,NaN,NaN,0.15,0.85,0,1,0,1,Volatile,Stable,2.714,0.739,1.975,1.134,expert
86,1673464653486,11/01/2023 19:17:33,1673464653527,0,11/01/2023 19:17:33,111483,5,task-v1fs,repeat-u7ds#1->-repeat-l3h2#1->-repeat-pi7a#1->-repeat-apgu#1,26330787,BLIND,7766384,NaN,complete,NaN,63bdb64bc7338fb4af0e3822,computer,Desktop or Laptop,Chromium OS 15183.69.0,Chrome 108.0.0.0,1536x864,1536x864,Start of Day 2,SLS,90,B,NaN,NaN,NaN,Pass,End of Day 1,Pass,NaN,Pass,NaN,Pass,NaN,Start of Day 2,schedule_A,schedule_A,18,11,3,offer,Zone3,response_button_image,757.29999999702,NaN,NaN,yellowBox.png,1,1,0,0,NaN,NaN,NaN,NaN,NaN,trial_right,yellowBox.png,redBox.png,yellowBox.png,al1_con.png,28,17,NaN,NaN,0.15,0.85,0,1,0,1,Volatile,Stable,2.714,0.739,1.975,1.134,expert
87,1673464655302,11/01/2023 19:17:35,1673464655513,0,11/01/2023 19:17:35,111483,5,task-v1fs,repeat-u7ds#1->-repeat-l3h2#1->-repeat-pi7a#1->-repeat-apgu#1,26330787,BLIND,7766384,NaN,complete,NaN,63bdb64bc7338fb4af0e3822,computer,Desktop or Laptop,Chromium OS 15183.69.0,Chrome 108.0.0.0,1536x864,1536x864,Start of Day 2,SLS,90,B,NaN,NaN,NaN,Pass,End of Day 1,Pass,NaN,Pass,NaN,Pass,NaN,Start of Day 2,schedule_A,schedule_A,18,11,5,feedback_r,Zone7,timelimit_screen,1999.254,NaN,NaN,,NaN,0,1,0,NaN,NaN,1,NaN,NaN,trial_right,yellowBox.png,redBox.png,yellowBox.png,al1_con.png,28,17,NaN,NaN,0.15,0.85,0,1,0,1,Volatile,Stable,2.714,0.739,1.975,1.134,expert
88,1673464655463,11/01/2023 19:17:35,1673464655663,0,11/01/2023 19:17:35,111483,5,task-v1fs,repeat-u7ds#1->-repeat-l3h2#1->-repeat-pi7a#1->-repeat-apgu#1,26330787,BLIND,7766384,NaN,complete,NaN,63bdb64bc7338fb4af0e3822,computer,Desktop or Laptop,Chromium OS 15183.69.0,Chrome 108.0.0.0,1536x864,1536x864,Start of Day 2,SLS,90,B,NaN,NaN,NaN,Pass,End of Day 1,Pass,NaN,Pass,NaN,Pass,NaN,Start of Day 2,schedule_A,schedule_A,18,11,6,end,Zone1,timelimit_screen,150.051000000007,NaN,NaN,,NaN,0,1,0,NaN,NaN,1,NaN,NaN,trial_right,yellowBox.png,redBox.png,yellowBox.png,al1_con.png,28,17,NaN,NaN,0.15,0.85,0,1,0,1,Volatile,Stable,2.714,0.739,1.975,1.134,expert
89,1673464656859,11/01/2023 19:17:36,1673464657063,0,11/01/2023 19:17:37,111483,5,task-v1fs,repeat-u7ds#1->-repeat-l3h2#1->-repeat-pi7a#1->-repeat-apgu#1,26330787,BLIND,7766384,NaN,complete,NaN,63bdb64bc7338fb4af0e3822,computer,Desktop or Laptop,Chromium OS 15183.69.0,Chrome 108.0.0.0,1536x864,1536x864,Start of Day 2,SLS,90,B,NaN,NaN,NaN,Pass,End of Day 1,Pass,NaN,Pass,NaN,Pass,NaN,Start of Day 2,schedule_A,schedule_A,19,7,1,Screen 1,Zone1,continue_button,1371.20000000298,NaN,NaN,,NaN,0,1,0,NaN,NaN,NaN,NaN,NaN,trial_left,yellowBox.png,yellowBox.png,redBox.png,al1_con.png,29,18,NaN,NaN,0.15,0.85,0,1,0,0,Volatile,Stable,3.874,0.676,1.496,1.639,expert
90,1673464657850,11/01/2023 19:17:37,1673464658062,0,11/01/2023 19:17:38,111483,5,task-v1fs,repeat-u7ds#1->-repeat-l3h2#1->-repeat-pi7a#1->-repeat-apgu#1,26330787,BLIND,7766384,NaN,complete,NaN,63bdb64bc7338fb4af0e3822,computer,Desktop or Laptop,Chromium OS 15183.69.0,Chrome 108.0.0.0,1536x864,1536x864,Start of Day 2,SLS,90,B,NaN,NaN,NaN,Pass,End of Day 1,Pass,NaN,Pass,NaN,Pass,NaN,Start of Day 2,schedule_A,schedule_A,19,7,2,individual,Zone4,timelimit_screen,999.612000000008,NaN,NaN,,NaN,0,1,0,NaN,NaN,1,NaN,NaN,trial_left,yellowBox.png,yellowBox.png,redBox.png,al1_con.png,29,18,NaN,NaN,0.15,0.85,0,1,0,0,Volatile,Stable,3.874,0.676,1.496,1.639,expert
91,1673464658880,11/01/2023 19:17:38,1673464659085,0,11/01/2023 19:17:39,111483,5,task-v1fs,repeat-u7ds#1->-repeat-l3h2#1->-repeat-pi7a#1->-repeat-apgu#1,26330787,BLIND,7766384,NaN,complete,NaN,63bdb64bc7338fb4af0e3822,computer,Desktop or Laptop,Chromium OS 15183.69.0,Chrome 108.0.0.0,1536x864,1536x864,Start of Day 2,SLS,90,B,NaN,NaN,NaN,Pass,End of Day 1,Pass,NaN,Pass,NaN,Pass,NaN,Start of Day 2,schedule_A,schedule_A,19,7,3,offer,Zone2,response_button_image,1006.59999999404,NaN,NaN,yellowBox.png,1,1,0,0,NaN,NaN,NaN,NaN,NaN,trial_left,yellowBox.png,yellowBox.png,redBox.png,al1_con.png,29,18,NaN,NaN,0.15,0.85,0,1,0,0,Volatile,Stable,3.874,0.676,1.496,1.639,expert
92,1673464660873,11/01/2023 19:17:40,1673464661077,0,11/01/2023 19:17:41,111483,5,task-v1fs,repeat-u7ds#1->-repeat-l3h2#1->-repeat-pi7a#1->-repeat-apgu#1,26330787,BLIND,7766384,NaN,complete,NaN,63bdb64bc7338fb4af0e3822,computer,Desktop or Laptop,Chromium OS 15183.69.0,Chrome 108.0.0.0,1536x864,1536x864,Start of Day 2,SLS,90,B,NaN,NaN,NaN,Pass,End of Day 1,Pass,NaN,Pass,NaN,Pass,NaN,Start of Day 2,schedule_A,schedule_A,19,7,4,feedback_l,Zone7,timelimit_screen,1999.349,NaN,NaN,,NaN,0,1,0,NaN,NaN,1,NaN,NaN,trial_left,yellowBox.png,yellowBox.png,redBox.png,al1_con.png,29,18,NaN,NaN,0.15,0.85,0,1,0,0,Volatile,Stable,3.874,0.676,1.496,1.639,expert
93,1673464661018,11/01/2023 19:17:41,1673464661228,0,11/01/2023 19:17:41,111483,5,task-v1fs,repeat-u7ds#1->-repeat-l3h2#1->-repeat-pi7a#1->-repeat-apgu#1,26330787,BLIND,7766384,NaN,complete,NaN,63bdb64bc7338fb4af0e3822,computer,Desktop or Laptop,Chromium OS 15183.69.0,Chrome 108.0.0.0,1536x864,1536x864,Start of Day 2,SLS,90,B,NaN,NaN,NaN,Pass,End of Day 1,Pass,NaN,Pass,NaN,Pass,NaN,Start of Day 2,schedule_A,schedule_A,19,7,6,end,Zone1,timelimit_screen,149.987999999998,NaN,NaN,,NaN,0,1,0,NaN,NaN,1,NaN,NaN,trial_left,yellowBox.png,yellowBox.png,redBox.png,al1_con.png,29,18,NaN,NaN,0.15,0.85,0,1,0,0,Volatile,Stable,3.874,0.676,1.496,1.639,expert
94,1673464661704,11/01/2023 19:17:41,1673464661914,0,11/01/2023 19:17:41,111483,5,task-v1fs,repeat-u7ds#1->-repeat-l3h2#1->-repeat-pi7a#1->-repeat-apgu#1,26330787,BLIND,7766384,NaN,complete,NaN,63bdb64bc7338fb4af0e3822,computer,Desktop or Laptop,Chromium OS 15183.69.0,Chrome 108.0.0.0,1536x864,1536x864,Start of Day 2,SLS,90,B,NaN,NaN,NaN,Pass,End of Day 1,Pass,NaN,Pass,NaN,Pass,NaN,Start of Day 2,schedule_A,schedule_A,20,12,1,Screen 1,Zone1,continue_button,654.5,NaN,NaN,,NaN,0,1,0,NaN,NaN,NaN,NaN,NaN,trial_right,yellowBox.png,yellowBox.png,redBox.png,al1_con.png,30,19,NaN,NaN,0.15,0.85,0,0,1,0,Volatile,Stable,1.252,1.193,0.853,2.681,expert
95,1673464662705,11/01/2023 19:17:42,1673464662911,0,11/01/2023 19:17:42,111483,5,task-v1fs,repeat-u7ds#1->-repeat-l3h2#1->-repeat-pi7a#1->-repeat-apgu#1,26330787,BLIND,7766384,NaN,complete,NaN,63bdb64bc7338fb4af0e3822,computer,Desktop or Laptop,Chromium OS 15183.69.0,Chrome 108.0.0.0,1536x864,1536x864,Start of Day 2,SLS,90,B,NaN,NaN,NaN,Pass,End of Day 1,Pass,NaN,Pass,NaN,Pass,NaN,Start of Day 2,schedule_A,schedule_A,20,12,2,individual,Zone4,timelimit_screen,999.610000000001,NaN,NaN,,NaN,0,1,0,NaN,NaN,1,NaN,NaN,trial_right,yellowBox.png,yellowBox.png,redBox.png,al1_con.png,30,19,NaN,NaN,0.15,0.85,0,0,1,0,Volatile,Stable,1.252,1.193,0.853,2.681,expert
96,1673464663933,11/01/2023 19:17:43,1673464663876,0,11/01/2023 19:17:43,111483,5,task-v1fs,repeat-u7ds#1->-repeat-l3h2#1->-repeat-pi7a#1->-repeat-apgu#1,26330787,BLIND,7766384,NaN,complete,NaN,63bdb64bc7338fb4af0e3822,computer,Desktop or Laptop,Chromium OS 15183.69.0,Chrome 108.0.0.0,1536x864,1536x864,Start of Day 2,SLS,90,B,NaN,NaN,NaN,Pass,End of Day 1,Pass,NaN,Pass,NaN,Pass,NaN,Start of Day 2,schedule_A,schedule_A,20,12,3,offer,Zone3,response_button_image,942.59999999404,NaN,NaN,redBox.png,1,0,1,0,NaN,NaN,NaN,NaN,NaN,trial_right,yellowBox.png,yellowBox.png,redBox.png,al1_con.png,30,19,NaN,NaN,0.15,0.85,0,0,1,0,Volatile,Stable,1.252,1.193,0.853,2.681,expert
97,1673464665651,11/01/2023 19:17:45,1673464665860,0,11/01/2023 19:17:45,111483,5,task-v1fs,repeat-u7ds#1->-repeat-l3h2#1->-repeat-pi7a#1->-repeat-apgu#1,26330787,BLIND,7766384,NaN,complete,NaN,63bdb64bc7338fb4af0e3822,computer,Desktop or Laptop,Chromium OS 15183.69.0,Chrome 108.0.0.0,1536x864,1536x864,Start of Day 2,SLS,90,B,NaN,NaN,NaN,Pass,End of Day 1,Pass,NaN,Pass,NaN,Pass,NaN,Start of Day 2,schedule_A,schedule_A,20,12,5,feedback_r,Zone7,timelimit_screen,1999.25999999999,NaN,NaN,,NaN,0,1,0,NaN,NaN,1,NaN,NaN,trial_right,yellowBox.png,yellowBox.png,redBox.png,al1_con.png,30,19,NaN,NaN,0.15,0.85,0,0,1,0,Volatile,Stable,1.252,1.193,0.853,2.681,expert
98,1673464665798,11/01/2023 19:17:45,1673464666009,0,11/01/2023 19:17:46,111483,5,task-v1fs,repeat-u7ds#1->-repeat-l3h2#1->-repeat-pi7a#1->-repeat-apgu#1,26330787,BLIND,7766384,NaN,complete,NaN,63bdb64bc7338fb4af0e3822,computer,Desktop or Laptop,Chromium OS 15183.69.0,Chrome 108.0.0.0,1536x864,1536x864,Start of Day 2,SLS,90,B,NaN,NaN,NaN,Pass,End of Day 1,Pass,NaN,Pass,NaN,Pass,NaN,Start of Day 2,schedule_A,schedule_A,20,12,6,end,Zone1,timelimit_screen,150.053,NaN,NaN,,NaN,0,1,0,NaN,NaN,1,NaN,NaN,trial_right,yellowBox.png,yellowBox.png,redBox.png,al1_con.png,30,19,NaN,NaN,0.15,0.85,0,0,1,0,Volatile,Stable,1.252,1.193,0.853,2.681,expert
99,1673464666537,11/01/2023 19:17:46,1673464666744,0,11/01/2023 19:17:46,111483,5,task-v1fs,repeat-u7ds#1->-repeat-l3h2#1->-repeat-pi7a#1->-repeat-apgu#1,26330787,BLIND,7766384,NaN,complete,NaN,63bdb64bc7338fb4af0e3822,computer,Desktop or Laptop,Chromium OS 15183.69.0,Chrome 108.0.0.0,1536x864,1536x864,Start of Day 2,SLS,90,B,NaN,NaN,NaN,Pass,End of Day 1,Pass,NaN,Pass,NaN,Pass,NaN,Start of Day 2,schedule_A,schedule_A,21,13,1,Screen 1,Zone1,continue_button,695.899999991059,NaN,NaN,,NaN,0,1,0,NaN,NaN,NaN,NaN,NaN,trial_right,yellowBox.png,redBox.png,yellowBox.png,al1_con.png,41,20,NaN,NaN,0.15,0.85,0,1,0,1,Volatile,Stable,3.521,1.723,1.37,1.655,expert
100,1673464667528,11/01/2023 19:17:47,1673464667742,0,11/01/2023 19:17:47,111483,5,task-v1fs,repeat-u7ds#1->-repeat-l3h2#1->-repeat-pi7a#1->-repeat-apgu#1,26330787,BLIND,7766384,NaN,complete,NaN,63bdb64bc7338fb4af0e3822,computer,Desktop or Laptop,Chromium OS 15183.69.0,Chrome 108.0.0.0,1536x864,1536x864,Start of Day 2,SLS,90,B,NaN,NaN,NaN,Pass,End of Day 1,Pass,NaN,Pass,NaN,Pass,NaN,Start of Day 2,schedule_A,schedule_A,21,13,2,individual,Zone4,timelimit_screen,999.601999999999,NaN,NaN,,NaN,0,1,0,NaN,NaN,1,NaN,NaN,trial_right,yellowBox.png,redBox.png,yellowBox.png,al1_con.png,41,20,NaN,NaN,0.15,0.85,0,1,0,1,Volatile,Stable,3.521,1.723,1.37,1.655,expert
101,1673464668182,11/01/2023 19:17:48,1673464668398,0,11/01/2023 19:17:48,111483,5,task-v1fs,repeat-u7ds#1->-repeat-l3h2#1->-repeat-pi7a#1->-repeat-apgu#1,26330787,BLIND,7766384,NaN,complete,NaN,63bdb64bc7338fb4af0e3822,computer,Desktop or Laptop,Chromium OS 15183.69.0,Chrome 108.0.0.0,1536x864,1536x864,Start of Day 2,SLS,90,B,NaN,NaN,NaN,Pass,End of Day 1,Pass,NaN,Pass,NaN,Pass,NaN,Start of Day 2,schedule_A,schedule_A,21,13,3,offer,Zone3,response_button_image,637.29999999702,NaN,NaN,yellowBox.png,1,1,0,0,NaN,NaN,NaN,NaN,NaN,trial_right,yellowBox.png,redBox.png,yellowBox.png,al1_con.png,41,20,NaN,NaN,0.15,0.85,0,1,0,1,Volatile,Stable,3.521,1.723,1.37,1.655,expert
102,1673464670188,11/01/2023 19:17:50,1673464670391,0,11/01/2023 19:17:50,111483,5,task-v1fs,repeat-u7ds#1->-repeat-l3h2#1->-repeat-pi7a#1->-repeat-apgu#1,26330787,BLIND,7766384,NaN,complete,NaN,63bdb64bc7338fb4af0e3822,computer,Desktop or Laptop,Chromium OS 15183.69.0,Chrome 108.0.0.0,1536x864,1536x864,Start of Day 2,SLS,90,B,NaN,NaN,NaN,Pass,End of Day 1,Pass,NaN,Pass,NaN,Pass,NaN,Start of Day 2,schedule_A,schedule_A,21,13,5,feedback_r,Zone7,timelimit_screen,1999.231,NaN,NaN,,NaN,0,1,0,NaN,NaN,1,NaN,NaN,trial_right,yellowBox.png,redBox.png,yellowBox.png,al1_con.png,41,20,NaN,NaN,0.15,0.85,0,1,0,1,Volatile,Stable,3.521,1.723,1.37,1.655,expert
103,1673464670331,11/01/2023 19:17:50,1673464670541,0,11/01/2023 19:17:50,111483,5,task-v1fs,repeat-u7ds#1->-repeat-l3h2#1->-repeat-pi7a#1->-repeat-apgu#1,26330787,BLIND,7766384,NaN,complete,NaN,63bdb64bc7338fb4af0e3822,computer,Desktop or Laptop,Chromium OS 15183.69.0,Chrome 108.0.0.0,1536x864,1536x864,Start of Day 2,SLS,90,B,NaN,NaN,NaN,Pass,End of Day 1,Pass,NaN,Pass,NaN,Pass,NaN,Start of Day 2,schedule_A,schedule_A,21,13,6,end,Zone1,timelimit_screen,150.065000000002,NaN,NaN,,NaN,0,1,0,NaN,NaN,1,NaN,NaN,trial_right,yellowBox.png,redBox.png,yellowBox.png,al1_con.png,41,20,NaN,NaN,0.15,0.85,0,1,0,1,Volatile,Stable,3.521,1.723,1.37,1.655,expert
104,1673464670972,11/01/2023 19:17:50,1673464671187,0,11/01/2023 19:17:51,111483,5,task-v1fs,repeat-u7ds#1->-repeat-l3h2#1->-repeat-pi7a#1->-repeat-apgu#1,26330787,BLIND,7766384,NaN,complete,NaN,63bdb64bc7338fb4af0e3822,computer,Desktop or Laptop,Chromium OS 15183.69.0,Chrome 108.0.0.0,1536x864,1536x864,Start of Day 2,SLS,90,B,NaN,NaN,NaN,Pass,End of Day 1,Pass,NaN,Pass,NaN,Pass,NaN,Start of Day 2,schedule_A,schedule_A,22,14,1,Screen 1,Zone1,continue_button,617.5,NaN,NaN,,NaN,0,1,0,NaN,NaN,NaN,NaN,NaN,trial_right,redBox.png,yellowBox.png,redBox.png,al1_con.png,42,21,NaN,NaN,0.85,0.85,1,1,1,0,Stable,Stable,2.336,0.651,1.685,2.882,expert
105,1673464671968,11/01/2023 19:17:51,1673464672175,0,11/01/2023 19:17:52,111483,5,task-v1fs,repeat-u7ds#1->-repeat-l3h2#1->-repeat-pi7a#1->-repeat-apgu#1,26330787,BLIND,7766384,NaN,complete,NaN,63bdb64bc7338fb4af0e3822,computer,Desktop or Laptop,Chromium OS 15183.69.0,Chrome 108.0.0.0,1536x864,1536x864,Start of Day 2,SLS,90,B,NaN,NaN,NaN,Pass,End of Day 1,Pass,NaN,Pass,NaN,Pass,NaN,Start of Day 2,schedule_A,schedule_A,22,14,2,individual,Zone4,timelimit_screen,999.649999999994,NaN,NaN,,NaN,0,1,0,NaN,NaN,1,NaN,NaN,trial_right,redBox.png,yellowBox.png,redBox.png,al1_con.png,42,21,NaN,NaN,0.85,0.85,1,1,1,0,Stable,Stable,2.336,0.651,1.685,2.882,expert
106,1673464672759,11/01/2023 19:17:52,1673464672970,0,11/01/2023 19:17:52,111483,5,task-v1fs,repeat-u7ds#1->-repeat-l3h2#1->-repeat-pi7a#1->-repeat-apgu#1,26330787,BLIND,7766384,NaN,complete,NaN,63bdb64bc7338fb4af0e3822,computer,Desktop or Laptop,Chromium OS 15183.69.0,Chrome 108.0.0.0,1536x864,1536x864,Start of Day 2,SLS,90,B,NaN,NaN,NaN,Pass,End of Day 1,Pass,NaN,Pass,NaN,Pass,NaN,Start of Day 2,schedule_A,schedule_A,22,14,3,offer,Zone3,response_button_image,777.800000011921,NaN,NaN,redBox.png,1,1,0,0,NaN,NaN,NaN,NaN,NaN,trial_right,redBox.png,yellowBox.png,redBox.png,al1_con.png,42,21,NaN,NaN,0.85,0.85,1,1,1,0,Stable,Stable,2.336,0.651,1.685,2.882,expert
107,1673464674844,11/01/2023 19:17:54,1673464674956,0,11/01/2023 19:17:54,111483,5,task-v1fs,repeat-u7ds#1->-repeat-l3h2#1->-repeat-pi7a#1->-repeat-apgu#1,26330787,BLIND,7766384,NaN,complete,NaN,63bdb64bc7338fb4af0e3822,computer,Desktop or Laptop,Chromium OS 15183.69.0,Chrome 108.0.0.0,1536x864,1536x864,Start of Day 2,SLS,90,B,NaN,NaN,NaN,Pass,End of Day 1,Pass,NaN,Pass,NaN,Pass,NaN,Start of Day 2,schedule_A,schedule_A,22,14,5,feedback_r,Zone7,timelimit_screen,1999.34299999999,NaN,NaN,,NaN,0,1,0,NaN,NaN,1,NaN,NaN,trial_right,redBox.png,yellowBox.png,redBox.png,al1_con.png,42,21,NaN,NaN,0.85,0.85,1,1,1,0,Stable,Stable,2.336,0.651,1.685,2.882,expert
108,1673464674942,11/01/2023 19:17:54,1673464675106,0,11/01/2023 19:17:55,111483,5,task-v1fs,repeat-u7ds#1->-repeat-l3h2#1->-repeat-pi7a#1->-repeat-apgu#1,26330787,BLIND,7766384,NaN,complete,NaN,63bdb64bc7338fb4af0e3822,computer,Desktop or Laptop,Chromium OS 15183.69.0,Chrome 108.0.0.0,1536x864,1536x864,Start of Day 2,SLS,90,B,NaN,NaN,NaN,Pass,End of Day 1,Pass,NaN,Pass,NaN,Pass,NaN,Start of Day 2,schedule_A,schedule_A,22,14,6,end,Zone1,timelimit_screen,149.982000000004,NaN,NaN,,NaN,0,1,0,NaN,NaN,1,NaN,NaN,trial_right,redBox.png,yellowBox.png,redBox.png,al1_con.png,42,21,NaN,NaN,0.85,0.85,1,1,1,0,Stable,Stable,2.336,0.651,1.685,2.882,expert
109,1673464675903,11/01/2023 19:17:55,1673464676108,0,11/01/2023 19:17:56,111483,5,task-v1fs,repeat-u7ds#1->-repeat-l3h2#1->-repeat-pi7a#1->-repeat-apgu#1,26330787,BLIND,7766384,NaN,complete,NaN,63bdb64bc7338fb4af0e3822,computer,Desktop or Laptop,Chromium OS 15183.69.0,Chrome 108.0.0.0,1536x864,1536x864,Start of Day 2,SLS,90,B,NaN,NaN,NaN,Pass,End of Day 1,Pass,NaN,Pass,NaN,Pass,NaN,Start of Day 2,schedule_A,schedule_A,23,15,1,Screen 1,Zone1,continue_button,975.5,NaN,NaN,,NaN,0,1,0,NaN,NaN,NaN,NaN,NaN,trial_right,redBox.png,yellowBox.png,redBox.png,al1_con.png,43,22,NaN,NaN,0.85,0.85,1,1,1,0,Stable,Stable,3.622,1.319,1.193,1.067,expert
110,1673464676918,11/01/2023 19:17:56,1673464677106,0,11/01/2023 19:17:57,111483,5,task-v1fs,repeat-u7ds#1->-repeat-l3h2#1->-repeat-pi7a#1->-repeat-apgu#1,26330787,BLIND,7766384,NaN,complete,NaN,63bdb64bc7338fb4af0e3822,computer,Desktop or Laptop,Chromium OS 15183.69.0,Chrome 108.0.0.0,1536x864,1536x864,Start of Day 2,SLS,90,B,NaN,NaN,NaN,Pass,End of Day 1,Pass,NaN,Pass,NaN,Pass,NaN,Start of Day 2,schedule_A,schedule_A,23,15,2,individual,Zone4,timelimit_screen,999.596000000005,NaN,NaN,,NaN,0,1,0,NaN,NaN,1,NaN,NaN,trial_right,redBox.png,yellowBox.png,redBox.png,al1_con.png,43,22,NaN,NaN,0.85,0.85,1,1,1,0,Stable,Stable,3.622,1.319,1.193,1.067,expert
111,1673464677843,11/01/2023 19:17:57,1673464678050,0,11/01/2023 19:17:58,111483,5,task-v1fs,repeat-u7ds#1->-repeat-l3h2#1->-repeat-pi7a#1->-repeat-apgu#1,26330787,BLIND,7766384,NaN,complete,NaN,63bdb64bc7338fb4af0e3822,computer,Desktop or Laptop,Chromium OS 15183.69.0,Chrome 108.0.0.0,1536x864,1536x864,Start of Day 2,SLS,90,B,NaN,NaN,NaN,Pass,End of Day 1,Pass,NaN,Pass,NaN,Pass,NaN,Start of Day 2,schedule_A,schedule_A,23,15,3,offer,Zone3,response_button_image,930.09999999404,NaN,NaN,redBox.png,1,1,0,0,NaN,NaN,NaN,NaN,NaN,trial_right,redBox.png,yellowBox.png,redBox.png,al1_con.png,43,22,NaN,NaN,0.85,0.85,1,1,1,0,Stable,Stable,3.622,1.319,1.193,1.067,expert
112,1673464679828,11/01/2023 19:17:59,1673464680038,0,11/01/2023 19:18:00,111483,5,task-v1fs,repeat-u7ds#1->-repeat-l3h2#1->-repeat-pi7a#1->-repeat-apgu#1,26330787,BLIND,7766384,NaN,complete,NaN,63bdb64bc7338fb4af0e3822,computer,Desktop or Laptop,Chromium OS 15183.69.0,Chrome 108.0.0.0,1536x864,1536x864,Start of Day 2,SLS,90,B,NaN,NaN,NaN,Pass,End of Day 1,Pass,NaN,Pass,NaN,Pass,NaN,Start of Day 2,schedule_A,schedule_A,23,15,5,feedback_r,Zone7,timelimit_screen,1999.333,NaN,NaN,,NaN,0,1,0,NaN,NaN,1,NaN,NaN,trial_right,redBox.png,yellowBox.png,redBox.png,al1_con.png,43,22,NaN,NaN,0.85,0.85,1,1,1,0,Stable,Stable,3.622,1.319,1.193,1.067,expert
113,1673464679974,11/01/2023 19:17:59,1673464680188,0,11/01/2023 19:18:00,111483,5,task-v1fs,repeat-u7ds#1->-repeat-l3h2#1->-repeat-pi7a#1->-repeat-apgu#1,26330787,BLIND,7766384,NaN,complete,NaN,63bdb64bc7338fb4af0e3822,computer,Desktop or Laptop,Chromium OS 15183.69.0,Chrome 108.0.0.0,1536x864,1536x864,Start of Day 2,SLS,90,B,NaN,NaN,NaN,Pass,End of Day 1,Pass,NaN,Pass,NaN,Pass,NaN,Start of Day 2,schedule_A,schedule_A,23,15,6,end,Zone1,timelimit_screen,149.991999999998,NaN,NaN,,NaN,0,1,0,NaN,NaN,1,NaN,NaN,trial_right,redBox.png,yellowBox.png,redBox.png,al1_con.png,43,22,NaN,NaN,0.85,0.85,1,1,1,0,Stable,Stable,3.622,1.319,1.193,1.067,expert
114,1673464680673,11/01/2023 19:18:00,1673464680880,0,11/01/2023 19:18:00,111483,5,task-v1fs,repeat-u7ds#1->-repeat-l3h2#1->-repeat-pi7a#1->-repeat-apgu#1,26330787,BLIND,7766384,NaN,complete,NaN,63bdb64bc7338fb4af0e3822,computer,Desktop or Laptop,Chromium OS 15183.69.0,Chrome 108.0.0.0,1536x864,1536x864,Start of Day 2,SLS,90,B,NaN,NaN,NaN,Pass,End of Day 1,Pass,NaN,Pass,NaN,Pass,NaN,Start of Day 2,schedule_A,schedule_A,24,8,1,Screen 1,Zone1,continue_button,664,NaN,NaN,,NaN,0,1,0,NaN,NaN,NaN,NaN,NaN,trial_left,redBox.png,redBox.png,yellowBox.png,al1_con.png,44,23,NaN,NaN,0.85,0.85,1,1,1,1,Stable,Stable,1.731,0.853,2,1.202,expert
115,1673464681667,11/01/2023 19:18:01,1673464681871,0,11/01/2023 19:18:01,111483,5,task-v1fs,repeat-u7ds#1->-repeat-l3h2#1->-repeat-pi7a#1->-repeat-apgu#1,26330787,BLIND,7766384,NaN,complete,NaN,63bdb64bc7338fb4af0e3822,computer,Desktop or Laptop,Chromium OS 15183.69.0,Chrome 108.0.0.0,1536x864,1536x864,Start of Day 2,SLS,90,B,NaN,NaN,NaN,Pass,End of Day 1,Pass,NaN,Pass,NaN,Pass,NaN,Start of Day 2,schedule_A,schedule_A,24,8,2,individual,Zone4,timelimit_screen,999.615000000005,NaN,NaN,,NaN,0,1,0,NaN,NaN,1,NaN,NaN,trial_left,redBox.png,redBox.png,yellowBox.png,al1_con.png,44,23,NaN,NaN,0.85,0.85,1,1,1,1,Stable,Stable,1.731,0.853,2,1.202,expert
116,1673464682432,11/01/2023 19:18:02,1673464682642,0,11/01/2023 19:18:02,111483,5,task-v1fs,repeat-u7ds#1->-repeat-l3h2#1->-repeat-pi7a#1->-repeat-apgu#1,26330787,BLIND,7766384,NaN,complete,NaN,63bdb64bc7338fb4af0e3822,computer,Desktop or Laptop,Chromium OS 15183.69.0,Chrome 108.0.0.0,1536x864,1536x864,Start of Day 2,SLS,90,B,NaN,NaN,NaN,Pass,End of Day 1,Pass,NaN,Pass,NaN,Pass,NaN,Start of Day 2,schedule_A,schedule_A,24,8,3,offer,Zone2,response_button_image,754.5,NaN,NaN,redBox.png,1,1,0,0,NaN,NaN,NaN,NaN,NaN,trial_left,redBox.png,redBox.png,yellowBox.png,al1_con.png,44,23,NaN,NaN,0.85,0.85,1,1,1,1,Stable,Stable,1.731,0.853,2,1.202,expert
117,1673464684624,11/01/2023 19:18:04,1673464684636,0,11/01/2023 19:18:04,111483,5,task-v1fs,repeat-u7ds#1->-repeat-l3h2#1->-repeat-pi7a#1->-repeat-apgu#1,26330787,BLIND,7766384,NaN,complete,NaN,63bdb64bc7338fb4af0e3822,computer,Desktop or Laptop,Chromium OS 15183.69.0,Chrome 108.0.0.0,1536x864,1536x864,Start of Day 2,SLS,90,B,NaN,NaN,NaN,Pass,End of Day 1,Pass,NaN,Pass,NaN,Pass,NaN,Start of Day 2,schedule_A,schedule_A,24,8,4,feedback_l,Zone7,timelimit_screen,1999.284,NaN,NaN,,NaN,0,1,0,NaN,NaN,1,NaN,NaN,trial_left,redBox.png,redBox.png,yellowBox.png,al1_con.png,44,23,NaN,NaN,0.85,0.85,1,1,1,1,Stable,Stable,1.731,0.853,2,1.202,expert
118,1673464684734,11/01/2023 19:18:04,1673464684786,0,11/01/2023 19:18:04,111483,5,task-v1fs,repeat-u7ds#1->-repeat-l3h2#1->-repeat-pi7a#1->-repeat-apgu#1,26330787,BLIND,7766384,NaN,complete,NaN,63bdb64bc7338fb4af0e3822,computer,Desktop or Laptop,Chromium OS 15183.69.0,Chrome 108.0.0.0,1536x864,1536x864,Start of Day 2,SLS,90,B,NaN,NaN,NaN,Pass,End of Day 1,Pass,NaN,Pass,NaN,Pass,NaN,Start of Day 2,schedule_A,schedule_A,24,8,6,end,Zone1,timelimit_screen,150.01999999999,NaN,NaN,,NaN,0,1,0,NaN,NaN,1,NaN,NaN,trial_left,redBox.png,redBox.png,yellowBox.png,al1_con.png,44,23,NaN,NaN,0.85,0.85,1,1,1,1,Stable,Stable,1.731,0.853,2,1.202,expert
119,1673464685060,11/01/2023 19:18:05,1673464685262,0,11/01/2023 19:18:05,111483,5,task-v1fs,repeat-u7ds#1->-repeat-l3h2#1->-repeat-pi7a#1->-repeat-apgu#1,26330787,BLIND,7766384,NaN,complete,NaN,63bdb64bc7338fb4af0e3822,computer,Desktop or Laptop,Chromium OS 15183.69.0,Chrome 108.0.0.0,1536x864,1536x864,Start of Day 2,SLS,90,B,NaN,NaN,NaN,Pass,End of Day 1,Pass,NaN,Pass,NaN,Pass,NaN,Start of Day 2,schedule_A,schedule_A,25,16,1,Screen 1,Zone1,continue_button,448.79999999702,NaN,NaN,,NaN,0,1,0,NaN,NaN,NaN,NaN,NaN,trial_right,redBox.png,yellowBox.png,redBox.png,al1_con.png,45,24,NaN,NaN,0.85,0.85,1,1,1,0,Stable,Stable,2.109,1.798,1.508,2.782,expert
120,1673464686042,11/01/2023 19:18:06,1673464686253,0,11/01/2023 19:18:06,111483,5,task-v1fs,repeat-u7ds#1->-repeat-l3h2#1->-repeat-pi7a#1->-repeat-apgu#1,26330787,BLIND,7766384,NaN,complete,NaN,63bdb64bc7338fb4af0e3822,computer,Desktop or Laptop,Chromium OS 15183.69.0,Chrome 108.0.0.0,1536x864,1536x864,Start of Day 2,SLS,90,B,NaN,NaN,NaN,Pass,End of Day 1,Pass,NaN,Pass,NaN,Pass,NaN,Start of Day 2,schedule_A,schedule_A,25,16,2,individual,Zone4,timelimit_screen,999.597999999998,NaN,NaN,,NaN,0,1,0,NaN,NaN,1,NaN,NaN,trial_right,redBox.png,yellowBox.png,redBox.png,al1_con.png,45,24,NaN,NaN,0.85,0.85,1,1,1,0,Stable,Stable,2.109,1.798,1.508,2.782,expert
121,1673464686785,11/01/2023 19:18:06,1673464686986,0,11/01/2023 19:18:06,111483,5,task-v1fs,repeat-u7ds#1->-repeat-l3h2#1->-repeat-pi7a#1->-repeat-apgu#1,26330787,BLIND,7766384,NaN,complete,NaN,63bdb64bc7338fb4af0e3822,computer,Desktop or Laptop,Chromium OS 15183.69.0,Chrome 108.0.0.0,1536x864,1536x864,Start of Day 2,SLS,90,B,NaN,NaN,NaN,Pass,End of Day 1,Pass,NaN,Pass,NaN,Pass,NaN,Start of Day 2,schedule_A,schedule_A,25,16,3,offer,Zone3,response_button_image,716.800000011921,NaN,NaN,redBox.png,1,1,0,0,NaN,NaN,NaN,NaN,NaN,trial_right,redBox.png,yellowBox.png,redBox.png,al1_con.png,45,24,NaN,NaN,0.85,0.85,1,1,1,0,Stable,Stable,2.109,1.798,1.508,2.782,expert
122,1673464688763,11/01/2023 19:18:08,1673464688968,0,11/01/2023 19:18:08,111483,5,task-v1fs,repeat-u7ds#1->-repeat-l3h2#1->-repeat-pi7a#1->-repeat-apgu#1,26330787,BLIND,7766384,NaN,complete,NaN,63bdb64bc7338fb4af0e3822,computer,Desktop or Laptop,Chromium OS 15183.69.0,Chrome 108.0.0.0,1536x864,1536x864,Start of Day 2,SLS,90,B,NaN,NaN,NaN,Pass,End of Day 1,Pass,NaN,Pass,NaN,Pass,NaN,Start of Day 2,schedule_A,schedule_A,25,16,5,feedback_r,Zone7,timelimit_screen,1999.276,NaN,NaN,,NaN,0,1,0,NaN,NaN,1,NaN,NaN,trial_right,redBox.png,yellowBox.png,redBox.png,al1_con.png,45,24,NaN,NaN,0.85,0.85,1,1,1,0,Stable,Stable,2.109,1.798,1.508,2.782,expert
123,1673464688906,11/01/2023 19:18:08,1673464689118,0,11/01/2023 19:18:09,111483,5,task-v1fs,repeat-u7ds#1->-repeat-l3h2#1->-repeat-pi7a#1->-repeat-apgu#1,26330787,BLIND,7766384,NaN,complete,NaN,63bdb64bc7338fb4af0e3822,computer,Desktop or Laptop,Chromium OS 15183.69.0,Chrome 108.0.0.0,1536x864,1536x864,Start of Day 2,SLS,90,B,NaN,NaN,NaN,Pass,End of Day 1,Pass,NaN,Pass,NaN,Pass,NaN,Start of Day 2,schedule_A,schedule_A,25,16,6,end,Zone1,timelimit_screen,150.030999999988,NaN,NaN,,NaN,0,1,0,NaN,NaN,1,NaN,NaN,trial_right,redBox.png,yellowBox.png,redBox.png,al1_con.png,45,24,NaN,NaN,0.85,0.85,1,1,1,0,Stable,Stable,2.109,1.798,1.508,2.782,expert
124,1673464689456,11/01/2023 19:18:09,1673464689665,0,11/01/2023 19:18:09,111483,5,task-v1fs,repeat-u7ds#1->-repeat-l3h2#1->-repeat-pi7a#1->-repeat-apgu#1,26330787,BLIND,7766384,NaN,complete,NaN,63bdb64bc7338fb4af0e3822,computer,Desktop or Laptop,Chromium OS 15183.69.0,Chrome 108.0.0.0,1536x864,1536x864,Start of Day 2,SLS,90,B,NaN,NaN,NaN,Pass,End of Day 1,Pass,NaN,Pass,NaN,Pass,NaN,Start of Day 2,schedule_A,schedule_A,26,9,1,Screen 1,Zone1,continue_button,516.600000008941,NaN,NaN,,NaN,0,1,0,NaN,NaN,NaN,NaN,NaN,trial_left,redBox.png,redBox.png,yellowBox.png,al1_con.png,46,25,NaN,NaN,0.85,0.85,1,1,1,1,Stable,Stable,2.916,1.294,1.962,2.361,expert
125,1673464690441,11/01/2023 19:18:10,1673464690651,0,11/01/2023 19:18:10,111483,5,task-v1fs,repeat-u7ds#1->-repeat-l3h2#1->-repeat-pi7a#1->-repeat-apgu#1,26330787,BLIND,7766384,NaN,complete,NaN,63bdb64bc7338fb4af0e3822,computer,Desktop or Laptop,Chromium OS 15183.69.0,Chrome 108.0.0.0,1536x864,1536x864,Start of Day 2,SLS,90,B,NaN,NaN,NaN,Pass,End of Day 1,Pass,NaN,Pass,NaN,Pass,NaN,Start of Day 2,schedule_A,schedule_A,26,9,2,individual,Zone4,timelimit_screen,999.630000000005,NaN,NaN,,NaN,0,1,0,NaN,NaN,1,NaN,NaN,trial_left,redBox.png,redBox.png,yellowBox.png,al1_con.png,46,25,NaN,NaN,0.85,0.85,1,1,1,1,Stable,Stable,2.916,1.294,1.962,2.361,expert
126,1673464691212,11/01/2023 19:18:11,1673464691428,0,11/01/2023 19:18:11,111483,5,task-v1fs,repeat-u7ds#1->-repeat-l3h2#1->-repeat-pi7a#1->-repeat-apgu#1,26330787,BLIND,7766384,NaN,complete,NaN,63bdb64bc7338fb4af0e3822,computer,Desktop or Laptop,Chromium OS 15183.69.0,Chrome 108.0.0.0,1536x864,1536x864,Start of Day 2,SLS,90,B,NaN,NaN,NaN,Pass,End of Day 1,Pass,NaN,Pass,NaN,Pass,NaN,Start of Day 2,schedule_A,schedule_A,26,9,3,offer,Zone2,response_button_image,755,NaN,NaN,redBox.png,1,1,0,0,NaN,NaN,NaN,NaN,NaN,trial_left,redBox.png,redBox.png,yellowBox.png,al1_con.png,46,25,NaN,NaN,0.85,0.85,1,1,1,1,Stable,Stable,2.916,1.294,1.962,2.361,expert
127,1673464693218,11/01/2023 19:18:13,1673464693417,0,11/01/2023 19:18:13,111483,5,task-v1fs,repeat-u7ds#1->-repeat-l3h2#1->-repeat-pi7a#1->-repeat-apgu#1,26330787,BLIND,7766384,NaN,complete,NaN,63bdb64bc7338fb4af0e3822,computer,Desktop or Laptop,Chromium OS 15183.69.0,Chrome 108.0.0.0,1536x864,1536x864,Start of Day 2,SLS,90,B,NaN,NaN,NaN,Pass,End of Day 1,Pass,NaN,Pass,NaN,Pass,NaN,Start of Day 2,schedule_A,schedule_A,26,9,4,feedback_l,Zone7,timelimit_screen,1999.247,NaN,NaN,,NaN,0,1,0,NaN,NaN,1,NaN,NaN,trial_left,redBox.png,redBox.png,yellowBox.png,al1_con.png,46,25,NaN,NaN,0.85,0.85,1,1,1,1,Stable,Stable,2.916,1.294,1.962,2.361,expert
128,1673464693354,11/01/2023 19:18:13,1673464693567,0,11/01/2023 19:18:13,111483,5,task-v1fs,repeat-u7ds#1->-repeat-l3h2#1->-repeat-pi7a#1->-repeat-apgu#1,26330787,BLIND,7766384,NaN,complete,NaN,63bdb64bc7338fb4af0e3822,computer,Desktop or Laptop,Chromium OS 15183.69.0,Chrome 108.0.0.0,1536x864,1536x864,Start of Day 2,SLS,90,B,NaN,NaN,NaN,Pass,End of Day 1,Pass,NaN,Pass,NaN,Pass,NaN,Start of Day 2,schedule_A,schedule_A,26,9,6,end,Zone1,timelimit_screen,150.061999999991,NaN,NaN,,NaN,0,1,0,NaN,NaN,1,NaN,NaN,trial_left,redBox.png,redBox.png,yellowBox.png,al1_con.png,46,25,NaN,NaN,0.85,0.85,1,1,1,1,Stable,Stable,2.916,1.294,1.962,2.361,expert
129,1673464694251,11/01/2023 19:18:14,1673464694197,0,11/01/2023 19:18:14,111483,5,task-v1fs,repeat-u7ds#1->-repeat-l3h2#1->-repeat-pi7a#1->-repeat-apgu#1,26330787,BLIND,7766384,NaN,complete,NaN,63bdb64bc7338fb4af0e3822,computer,Desktop or Laptop,Chromium OS 15183.69.0,Chrome 108.0.0.0,1536x864,1536x864,Start of Day 2,SLS,90,B,NaN,NaN,NaN,Pass,End of Day 1,Pass,NaN,Pass,NaN,Pass,NaN,Start of Day 2,schedule_A,schedule_A,27,17,1,Screen 1,Zone1,continue_button,602.5,NaN,NaN,,NaN,0,1,0,NaN,NaN,NaN,NaN,NaN,trial_right,redBox.png,yellowBox.png,redBox.png,al1_con.png,47,26,NaN,NaN,0.85,0.85,1,1,1,0,Stable,Stable,2.487,1.697,1.13,1.286,expert
130,1673464694968,11/01/2023 19:18:14,1673464695183,0,11/01/2023 19:18:15,111483,5,task-v1fs,repeat-u7ds#1->-repeat-l3h2#1->-repeat-pi7a#1->-repeat-apgu#1,26330787,BLIND,7766384,NaN,complete,NaN,63bdb64bc7338fb4af0e3822,computer,Desktop or Laptop,Chromium OS 15183.69.0,Chrome 108.0.0.0,1536x864,1536x864,Start of Day 2,SLS,90,B,NaN,NaN,NaN,Pass,End of Day 1,Pass,NaN,Pass,NaN,Pass,NaN,Start of Day 2,schedule_A,schedule_A,27,17,2,individual,Zone4,timelimit_screen,999.604999999996,NaN,NaN,,NaN,0,1,0,NaN,NaN,1,NaN,NaN,trial_right,redBox.png,yellowBox.png,redBox.png,al1_con.png,47,26,NaN,NaN,0.85,0.85,1,1,1,0,Stable,Stable,2.487,1.697,1.13,1.286,expert
131,1673464695714,11/01/2023 19:18:15,1673464695910,0,11/01/2023 19:18:15,111483,5,task-v1fs,repeat-u7ds#1->-repeat-l3h2#1->-repeat-pi7a#1->-repeat-apgu#1,26330787,BLIND,7766384,NaN,complete,NaN,63bdb64bc7338fb4af0e3822,computer,Desktop or Laptop,Chromium OS 15183.69.0,Chrome 108.0.0.0,1536x864,1536x864,Start of Day 2,SLS,90,B,NaN,NaN,NaN,Pass,End of Day 1,Pass,NaN,Pass,NaN,Pass,NaN,Start of Day 2,schedule_A,schedule_A,27,17,3,offer,Zone3,response_button_image,710.29999999702,NaN,NaN,redBox.png,1,1,0,0,NaN,NaN,NaN,NaN,NaN,trial_right,redBox.png,yellowBox.png,redBox.png,al1_con.png,47,26,NaN,NaN,0.85,0.85,1,1,1,0,Stable,Stable,2.487,1.697,1.13,1.286,expert
132,1673464697695,11/01/2023 19:18:17,1673464697899,0,11/01/2023 19:18:17,111483,5,task-v1fs,repeat-u7ds#1->-repeat-l3h2#1->-repeat-pi7a#1->-repeat-apgu#1,26330787,BLIND,7766384,NaN,complete,NaN,63bdb64bc7338fb4af0e3822,computer,Desktop or Laptop,Chromium OS 15183.69.0,Chrome 108.0.0.0,1536x864,1536x864,Start of Day 2,SLS,90,B,NaN,NaN,NaN,Pass,End of Day 1,Pass,NaN,Pass,NaN,Pass,NaN,Start of Day 2,schedule_A,schedule_A,27,17,5,feedback_r,Zone7,timelimit_screen,1999.236,NaN,NaN,,NaN,0,1,0,NaN,NaN,1,NaN,NaN,trial_right,redBox.png,yellowBox.png,redBox.png,al1_con.png,47,26,NaN,NaN,0.85,0.85,1,1,1,0,Stable,Stable,2.487,1.697,1.13,1.286,expert
133,1673464697842,11/01/2023 19:18:17,1673464698048,0,11/01/2023 19:18:18,111483,5,task-v1fs,repeat-u7ds#1->-repeat-l3h2#1->-repeat-pi7a#1->-repeat-apgu#1,26330787,BLIND,7766384,NaN,complete,NaN,63bdb64bc7338fb4af0e3822,computer,Desktop or Laptop,Chromium OS 15183.69.0,Chrome 108.0.0.0,1536x864,1536x864,Start of Day 2,SLS,90,B,NaN,NaN,NaN,Pass,End of Day 1,Pass,NaN,Pass,NaN,Pass,NaN,Start of Day 2,schedule_A,schedule_A,27,17,6,end,Zone1,timelimit_screen,150.069000000003,NaN,NaN,,NaN,0,1,0,NaN,NaN,1,NaN,NaN,trial_right,redBox.png,yellowBox.png,redBox.png,al1_con.png,47,26,NaN,NaN,0.85,0.85,1,1,1,0,Stable,Stable,2.487,1.697,1.13,1.286,expert
134,1673464698263,11/01/2023 19:18:18,1673464698480,0,11/01/2023 19:18:18,111483,5,task-v1fs,repeat-u7ds#1->-repeat-l3h2#1->-repeat-pi7a#1->-repeat-apgu#1,26330787,BLIND,7766384,NaN,complete,NaN,63bdb64bc7338fb4af0e3822,computer,Desktop or Laptop,Chromium OS 15183.69.0,Chrome 108.0.0.0,1536x864,1536x864,Start of Day 2,SLS,90,B,NaN,NaN,NaN,Pass,End of Day 1,Pass,NaN,Pass,NaN,Pass,NaN,Start of Day 2,schedule_A,schedule_A,28,10,1,Screen 1,Zone1,continue_button,404.59999999404,NaN,NaN,,NaN,0,1,0,NaN,NaN,NaN,NaN,NaN,trial_left,redBox.png,redBox.png,yellowBox.png,al1_con.png,48,27,NaN,NaN,0.85,0.85,1,1,1,1,Stable,Stable,3.824,1.634,0.992,2.244,expert
135,1673464699260,11/01/2023 19:18:19,1673464699465,0,11/01/2023 19:18:19,111483,5,task-v1fs,repeat-u7ds#1->-repeat-l3h2#1->-repeat-pi7a#1->-repeat-apgu#1,26330787,BLIND,7766384,NaN,complete,NaN,63bdb64bc7338fb4af0e3822,computer,Desktop or Laptop,Chromium OS 15183.69.0,Chrome 108.0.0.0,1536x864,1536x864,Start of Day 2,SLS,90,B,NaN,NaN,NaN,Pass,End of Day 1,Pass,NaN,Pass,NaN,Pass,NaN,Start of Day 2,schedule_A,schedule_A,28,10,2,individual,Zone4,timelimit_screen,999.616999999998,NaN,NaN,,NaN,0,1,0,NaN,NaN,1,NaN,NaN,trial_left,redBox.png,redBox.png,yellowBox.png,al1_con.png,48,27,NaN,NaN,0.85,0.85,1,1,1,1,Stable,Stable,3.824,1.634,0.992,2.244,expert
136,1673464700166,11/01/2023 19:18:20,1673464700373,0,11/01/2023 19:18:20,111483,5,task-v1fs,repeat-u7ds#1->-repeat-l3h2#1->-repeat-pi7a#1->-repeat-apgu#1,26330787,BLIND,7766384,NaN,complete,NaN,63bdb64bc7338fb4af0e3822,computer,Desktop or Laptop,Chromium OS 15183.69.0,Chrome 108.0.0.0,1536x864,1536x864,Start of Day 2,SLS,90,B,NaN,NaN,NaN,Pass,End of Day 1,Pass,NaN,Pass,NaN,Pass,NaN,Start of Day 2,schedule_A,schedule_A,28,10,3,offer,Zone2,response_button_image,891.79999999702,NaN,NaN,redBox.png,1,1,0,0,NaN,NaN,NaN,NaN,NaN,trial_left,redBox.png,redBox.png,yellowBox.png,al1_con.png,48,27,NaN,NaN,0.85,0.85,1,1,1,1,Stable,Stable,3.824,1.634,0.992,2.244,expert
137,1673464702154,11/01/2023 19:18:22,1673464702364,0,11/01/2023 19:18:22,111483,5,task-v1fs,repeat-u7ds#1->-repeat-l3h2#1->-repeat-pi7a#1->-repeat-apgu#1,26330787,BLIND,7766384,NaN,complete,NaN,63bdb64bc7338fb4af0e3822,computer,Desktop or Laptop,Chromium OS 15183.69.0,Chrome 108.0.0.0,1536x864,1536x864,Start of Day 2,SLS,90,B,NaN,NaN,NaN,Pass,End of Day 1,Pass,NaN,Pass,NaN,Pass,NaN,Start of Day 2,schedule_A,schedule_A,28,10,4,feedback_l,Zone7,timelimit_screen,1999.25199999998,NaN,NaN,,NaN,0,1,0,NaN,NaN,1,NaN,NaN,trial_left,redBox.png,redBox.png,yellowBox.png,al1_con.png,48,27,NaN,NaN,0.85,0.85,1,1,1,1,Stable,Stable,3.824,1.634,0.992,2.244,expert
138,1673464702313,11/01/2023 19:18:22,1673464702514,0,11/01/2023 19:18:22,111483,5,task-v1fs,repeat-u7ds#1->-repeat-l3h2#1->-repeat-pi7a#1->-repeat-apgu#1,26330787,BLIND,7766384,NaN,complete,NaN,63bdb64bc7338fb4af0e3822,computer,Desktop or Laptop,Chromium OS 15183.69.0,Chrome 108.0.0.0,1536x864,1536x864,Start of Day 2,SLS,90,B,NaN,NaN,NaN,Pass,End of Day 1,Pass,NaN,Pass,NaN,Pass,NaN,Start of Day 2,schedule_A,schedule_A,28,10,6,end,Zone1,timelimit_screen,150.059000000008,NaN,NaN,,NaN,0,1,0,NaN,NaN,1,NaN,NaN,trial_left,redBox.png,redBox.png,yellowBox.png,al1_con.png,48,27,NaN,NaN,0.85,0.85,1,1,1,1,Stable,Stable,3.824,1.634,0.992,2.244,expert
139,1673464702748,11/01/2023 19:18:22,1673464702962,0,11/01/2023 19:18:22,111483,5,task-v1fs,repeat-u7ds#1->-repeat-l3h2#1->-repeat-pi7a#1->-repeat-apgu#1,26330787,BLIND,7766384,NaN,complete,NaN,63bdb64bc7338fb4af0e3822,computer,Desktop or Laptop,Chromium OS 15183.69.0,Chrome 108.0.0.0,1536x864,1536x864,Start of Day 2,SLS,90,B,NaN,NaN,NaN,Pass,End of Day 1,Pass,NaN,Pass,NaN,Pass,NaN,Start of Day 2,schedule_A,schedule_A,29,11,1,Screen 1,Zone1,continue_button,410.70000000298,NaN,NaN,,NaN,0,1,0,NaN,NaN,NaN,NaN,NaN,trial_left,redBox.png,redBox.png,yellowBox.png,al1_con.png,49,28,NaN,NaN,0.85,0.85,1,1,1,1,Stable,Stable,2.84,1.937,1.723,2.815,expert
140,1673464703733,11/01/2023 19:18:23,1673464703947,0,11/01/2023 19:18:23,111483,5,task-v1fs,repeat-u7ds#1->-repeat-l3h2#1->-repeat-pi7a#1->-repeat-apgu#1,26330787,BLIND,7766384,NaN,complete,NaN,63bdb64bc7338fb4af0e3822,computer,Desktop or Laptop,Chromium OS 15183.69.0,Chrome 108.0.0.0,1536x864,1536x864,Start of Day 2,SLS,90,B,NaN,NaN,NaN,Pass,End of Day 1,Pass,NaN,Pass,NaN,Pass,NaN,Start of Day 2,schedule_A,schedule_A,29,11,2,individual,Zone4,timelimit_screen,999.630999999994,NaN,NaN,,NaN,0,1,0,NaN,NaN,1,NaN,NaN,trial_left,redBox.png,redBox.png,yellowBox.png,al1_con.png,49,28,NaN,NaN,0.85,0.85,1,1,1,1,Stable,Stable,2.84,1.937,1.723,2.815,expert
141,1673464704666,11/01/2023 19:18:24,1673464704855,0,11/01/2023 19:18:24,111483,5,task-v1fs,repeat-u7ds#1->-repeat-l3h2#1->-repeat-pi7a#1->-repeat-apgu#1,26330787,BLIND,7766384,NaN,complete,NaN,63bdb64bc7338fb4af0e3822,computer,Desktop or Laptop,Chromium OS 15183.69.0,Chrome 108.0.0.0,1536x864,1536x864,Start of Day 2,SLS,90,B,NaN,NaN,NaN,Pass,End of Day 1,Pass,NaN,Pass,NaN,Pass,NaN,Start of Day 2,schedule_A,schedule_A,29,11,3,offer,Zone2,response_button_image,888.800000011921,NaN,NaN,redBox.png,1,1,0,0,NaN,NaN,NaN,NaN,NaN,trial_left,redBox.png,redBox.png,yellowBox.png,al1_con.png,49,28,NaN,NaN,0.85,0.85,1,1,1,1,Stable,Stable,2.84,1.937,1.723,2.815,expert
142,1673464706646,11/01/2023 19:18:26,1673464706845,0,11/01/2023 19:18:26,111483,5,task-v1fs,repeat-u7ds#1->-repeat-l3h2#1->-repeat-pi7a#1->-repeat-apgu#1,26330787,BLIND,7766384,NaN,complete,NaN,63bdb64bc7338fb4af0e3822,computer,Desktop or Laptop,Chromium OS 15183.69.0,Chrome 108.0.0.0,1536x864,1536x864,Start of Day 2,SLS,90,B,NaN,NaN,NaN,Pass,End of Day 1,Pass,NaN,Pass,NaN,Pass,NaN,Start of Day 2,schedule_A,schedule_A,29,11,4,feedback_l,Zone7,timelimit_screen,1999.258,NaN,NaN,,NaN,0,1,0,NaN,NaN,1,NaN,NaN,trial_left,redBox.png,redBox.png,yellowBox.png,al1_con.png,49,28,NaN,NaN,0.85,0.85,1,1,1,1,Stable,Stable,2.84,1.937,1.723,2.815,expert
143,1673464706782,11/01/2023 19:18:26,1673464706995,0,11/01/2023 19:18:26,111483,5,task-v1fs,repeat-u7ds#1->-repeat-l3h2#1->-repeat-pi7a#1->-repeat-apgu#1,26330787,BLIND,7766384,NaN,complete,NaN,63bdb64bc7338fb4af0e3822,computer,Desktop or Laptop,Chromium OS 15183.69.0,Chrome 108.0.0.0,1536x864,1536x864,Start of Day 2,SLS,90,B,NaN,NaN,NaN,Pass,End of Day 1,Pass,NaN,Pass,NaN,Pass,NaN,Start of Day 2,schedule_A,schedule_A,29,11,6,end,Zone1,timelimit_screen,150.057000000001,NaN,NaN,,NaN,0,1,0,NaN,NaN,1,NaN,NaN,trial_left,redBox.png,redBox.png,yellowBox.png,al1_con.png,49,28,NaN,NaN,0.85,0.85,1,1,1,1,Stable,Stable,2.84,1.937,1.723,2.815,expert
144,1673464707078,11/01/2023 19:18:27,1673464707284,0,11/01/2023 19:18:27,111483,5,task-v1fs,repeat-u7ds#1->-repeat-l3h2#1->-repeat-pi7a#1->-repeat-apgu#1,26330787,BLIND,7766384,NaN,complete,NaN,63bdb64bc7338fb4af0e3822,computer,Desktop or Laptop,Chromium OS 15183.69.0,Chrome 108.0.0.0,1536x864,1536x864,Start of Day 2,SLS,90,B,NaN,NaN,NaN,Pass,End of Day 1,Pass,NaN,Pass,NaN,Pass,NaN,Start of Day 2,schedule_A,schedule_A,30,18,1,Screen 1,Zone1,continue_button,258.300000011921,NaN,NaN,,NaN,0,1,0,NaN,NaN,NaN,NaN,NaN,trial_right,redBox.png,yellowBox.png,redBox.png,al1_con.png,50,29,NaN,NaN,0.85,0.85,1,1,1,0,Stable,Stable,2.941,1.71,0.664,1.336,expert
145,1673464708066,11/01/2023 19:18:28,1673464708279,0,11/01/2023 19:18:28,111483,5,task-v1fs,repeat-u7ds#1->-repeat-l3h2#1->-repeat-pi7a#1->-repeat-apgu#1,26330787,BLIND,7766384,NaN,complete,NaN,63bdb64bc7338fb4af0e3822,computer,Desktop or Laptop,Chromium OS 15183.69.0,Chrome 108.0.0.0,1536x864,1536x864,Start of Day 2,SLS,90,B,NaN,NaN,NaN,Pass,End of Day 1,Pass,NaN,Pass,NaN,Pass,NaN,Start of Day 2,schedule_A,schedule_A,30,18,2,individual,Zone4,timelimit_screen,999.600999999995,NaN,NaN,,NaN,0,1,0,NaN,NaN,1,NaN,NaN,trial_right,redBox.png,yellowBox.png,redBox.png,al1_con.png,50,29,NaN,NaN,0.85,0.85,1,1,1,0,Stable,Stable,2.941,1.71,0.664,1.336,expert
146,1673464708925,11/01/2023 19:18:28,1673464709137,0,11/01/2023 19:18:29,111483,5,task-v1fs,repeat-u7ds#1->-repeat-l3h2#1->-repeat-pi7a#1->-repeat-apgu#1,26330787,BLIND,7766384,NaN,complete,NaN,63bdb64bc7338fb4af0e3822,computer,Desktop or Laptop,Chromium OS 15183.69.0,Chrome 108.0.0.0,1536x864,1536x864,Start of Day 2,SLS,90,B,NaN,NaN,NaN,Pass,End of Day 1,Pass,NaN,Pass,NaN,Pass,NaN,Start of Day 2,schedule_A,schedule_A,30,18,3,offer,Zone3,response_button_image,839.20000000298,NaN,NaN,redBox.png,1,1,0,0,NaN,NaN,NaN,NaN,NaN,trial_right,redBox.png,yellowBox.png,redBox.png,al1_con.png,50,29,NaN,NaN,0.85,0.85,1,1,1,0,Stable,Stable,2.941,1.71,0.664,1.336,expert
147,1673464710935,11/01/2023 19:18:30,1673464711129,0,11/01/2023 19:18:31,111483,5,task-v1fs,repeat-u7ds#1->-repeat-l3h2#1->-repeat-pi7a#1->-repeat-apgu#1,26330787,BLIND,7766384,NaN,complete,NaN,63bdb64bc7338fb4af0e3822,computer,Desktop or Laptop,Chromium OS 15183.69.0,Chrome 108.0.0.0,1536x864,1536x864,Start of Day 2,SLS,90,B,NaN,NaN,NaN,Pass,End of Day 1,Pass,NaN,Pass,NaN,Pass,NaN,Start of Day 2,schedule_A,schedule_A,30,18,5,feedback_r,Zone7,timelimit_screen,1999.25499999998,NaN,NaN,,NaN,0,1,0,NaN,NaN,1,NaN,NaN,trial_right,redBox.png,yellowBox.png,redBox.png,al1_con.png,50,29,NaN,NaN,0.85,0.85,1,1,1,0,Stable,Stable,2.941,1.71,0.664,1.336,expert
148,1673464711062,11/01/2023 19:18:31,1673464711278,0,11/01/2023 19:18:31,111483,5,task-v1fs,repeat-u7ds#1->-repeat-l3h2#1->-repeat-pi7a#1->-repeat-apgu#1,26330787,BLIND,7766384,NaN,complete,NaN,63bdb64bc7338fb4af0e3822,computer,Desktop or Laptop,Chromium OS 15183.69.0,Chrome 108.0.0.0,1536x864,1536x864,Start of Day 2,SLS,90,B,NaN,NaN,NaN,Pass,End of Day 1,Pass,NaN,Pass,NaN,Pass,NaN,Start of Day 2,schedule_A,schedule_A,30,18,6,end,Zone1,timelimit_screen,150.059999999998,NaN,NaN,,NaN,0,1,0,NaN,NaN,1,NaN,NaN,trial_right,redBox.png,yellowBox.png,redBox.png,al1_con.png,50,29,NaN,NaN,0.85,0.85,1,1,1,0,Stable,Stable,2.941,1.71,0.664,1.336,expert
149,1673464711590,11/01/2023 19:18:31,1673464711796,0,11/01/2023 19:18:31,111483,5,task-v1fs,repeat-u7ds#1->-repeat-l3h2#1->-repeat-pi7a#1->-repeat-apgu#1,26330787,BLIND,7766384,NaN,complete,NaN,63bdb64bc7338fb4af0e3822,computer,Desktop or Laptop,Chromium OS 15183.69.0,Chrome 108.0.0.0,1536x864,1536x864,Start of Day 2,SLS,90,B,NaN,NaN,NaN,Pass,End of Day 1,Pass,NaN,Pass,NaN,Pass,NaN,Start of Day 2,schedule_A,schedule_A,31,12,1,Screen 1,Zone1,continue_button,482.20000000298,NaN,NaN,,NaN,0,1,0,NaN,NaN,NaN,NaN,NaN,trial_left,redBox.png,redBox.png,yellowBox.png,al1_con.png,61,30,NaN,NaN,0.85,0.85,1,1,1,1,Stable,Stable,2.79,1.735,0.601,2.345,expert
150,1673464712586,11/01/2023 19:18:32,1673464712794,0,11/01/2023 19:18:32,111483,5,task-v1fs,repeat-u7ds#1->-repeat-l3h2#1->-repeat-pi7a#1->-repeat-apgu#1,26330787,BLIND,7766384,NaN,complete,NaN,63bdb64bc7338fb4af0e3822,computer,Desktop or Laptop,Chromium OS 15183.69.0,Chrome 108.0.0.0,1536x864,1536x864,Start of Day 2,SLS,90,B,NaN,NaN,NaN,Pass,End of Day 1,Pass,NaN,Pass,NaN,Pass,NaN,Start of Day 2,schedule_A,schedule_A,31,12,2,individual,Zone4,timelimit_screen,999.600999999995,NaN,NaN,,NaN,0,1,0,NaN,NaN,1,NaN,NaN,trial_left,redBox.png,redBox.png,yellowBox.png,al1_con.png,61,30,NaN,NaN,0.85,0.85,1,1,1,1,Stable,Stable,2.79,1.735,0.601,2.345,expert
151,1673464713311,11/01/2023 19:18:33,1673464713519,0,11/01/2023 19:18:33,111483,5,task-v1fs,repeat-u7ds#1->-repeat-l3h2#1->-repeat-pi7a#1->-repeat-apgu#1,26330787,BLIND,7766384,NaN,complete,NaN,63bdb64bc7338fb4af0e3822,computer,Desktop or Laptop,Chromium OS 15183.69.0,Chrome 108.0.0.0,1536x864,1536x864,Start of Day 2,SLS,90,B,NaN,NaN,NaN,Pass,End of Day 1,Pass,NaN,Pass,NaN,Pass,NaN,Start of Day 2,schedule_A,schedule_A,31,12,3,offer,Zone2,response_button_image,709.40000000596,NaN,NaN,redBox.png,1,1,0,0,NaN,NaN,NaN,NaN,NaN,trial_left,redBox.png,redBox.png,yellowBox.png,al1_con.png,61,30,NaN,NaN,0.85,0.85,1,1,1,1,Stable,Stable,2.79,1.735,0.601,2.345,expert
