EventIndex,UTCTimestamp,UTCDate,LocalTimestamp,LocalTimezone,LocalDate,ExperimentID,ExperimentVersion,TreeNodeKey,RepeatKey,ScheduleID,ParticipantPublicID,ParticipantPrivateID,ParticipantStartingGroup,ParticipantStatus,ParticipantCompletionCode,ParticipantExternalSessionID,ParticipantDeviceType,ParticipantDevice,ParticipantOS,ParticipantBrowser,ParticipantMonitorSize,ParticipantViewportSize,Checkpoint,TaskName,TaskVersion,randomiser_6z9f,branch_kxy7,checkpoint_tqwf,branch_rtog,branch_7dgx,checkpoint_mqen,branch_yx2c,branch_3n8o,branch_f1s6,branch_x6l7,branch_21hs,checkpoint_iz27,checkpoint_sry6,Spreadsheet,SpreadsheetName,SpreadsheetRow,TrialNumber,ScreenNumber,ScreenName,ZoneName,ZoneType,ReactionTime,ReactionOnset,ResponseType,Response,Attempt,Correct,Incorrect,Dishonest,XCoordinate,YCoordinate,TimedOut,randomise_blocks,randomise_trials,display,ANSWER,left_button,right_button,advice,orderno,trialno,ShowProgressBar,image,prob_blue_corr,prob_group_corr,corr_ans,group_corr,group_choice,blue_pos,indiv_vol,soc_vol,ITI_1,ITI_2,ITI_3,ITI_4,condition
1,1673379100578,10/01/2023 19:31:40,1673379100282,0,10/01/2023 19:31:40,111483,5,task-xjip,repeat-7g8d#1->-repeat-38fk#1,26307347,BLIND,7766400,NaN,complete,NaN,63bdb71b374a15fbe31fe02d,computer,Desktop or Laptop,Windows 10,Chrome 108.0.0.0,1500x1000,1500x1000,Start of Day 2,SLS,90,A,Pass,End of Day 1,Pass,NaN,NaN,NaN,Pass,NaN,Pass,NaN,Start of Day 2,NaN,schedule_A,,NaN,NaN,NaN,,,,NaN,NaN,NaN,,NaN,0,1,0,NaN,NaN,NaN,NaN,NaN,,,,,,NaN,NaN,NaN,NaN,NaN,NaN,NaN,NaN,NaN,NaN,,,NaN,NaN,NaN,NaN,
2,1673379103215,10/01/2023 19:31:43,1673379102952,0,10/01/2023 19:31:42,111483,5,task-xjip,repeat-7g8d#1->-repeat-38fk#1,26307347,BLIND,7766400,NaN,complete,NaN,63bdb71b374a15fbe31fe02d,computer,Desktop or Laptop,Windows 10,Chrome 108.0.0.0,1500x1000,1500x1000,Start of Day 2,SLS,90,A,Pass,End of Day 1,Pass,NaN,NaN,NaN,Pass,NaN,Pass,NaN,Start of Day 2,NaN,schedule_A,schedule_A,1,1,1,Screen 1,Zone1,continue_button,2309.59999996424,NaN,NaN,,NaN,0,1,0,NaN,NaN,NaN,NaN,NaN,getReady,,,,,1,NaN,NaN,NaN,NaN,NaN,NaN,NaN,NaN,NaN,,,NaN,NaN,NaN,NaN,
3,1673379105666,10/01/2023 19:31:45,1673379105409,0,10/01/2023 19:31:45,111483,5,task-xjip,repeat-7g8d#1->-repeat-38fk#1,26307347,BLIND,7766400,NaN,complete,NaN,63bdb71b374a15fbe31fe02d,computer,Desktop or Laptop,Windows 10,Chrome 108.0.0.0,1500x1000,1500x1000,Start of Day 2,SLS,90,A,Pass,End of Day 1,Pass,NaN,NaN,NaN,Pass,NaN,Pass,NaN,Start of Day 2,NaN,schedule_A,schedule_A,1,1,2,Screen 2,Zone1,continue_button,2452.5,NaN,NaN,,NaN,0,1,0,NaN,NaN,NaN,NaN,NaN,getReady,,,,,1,NaN,NaN,NaN,NaN,NaN,NaN,NaN,NaN,NaN,,,NaN,NaN,NaN,NaN,
4,1673379107585,10/01/2023 19:31:47,1673379107310,0,10/01/2023 19:31:47,111483,5,task-xjip,repeat-7g8d#1->-repeat-38fk#1,26307347,BLIND,7766400,NaN,complete,NaN,63bdb71b374a15fbe31fe02d,computer,Desktop or Laptop,Windows 10,Chrome 108.0.0.0,1500x1000,1500x1000,Start of Day 2,SLS,90,A,Pass,End of Day 1,Pass,NaN,NaN,NaN,Pass,NaN,Pass,NaN,Start of Day 2,NaN,schedule_A,schedule_A,2,1,1,Screen 1,Zone1,continue_button,1886.79999995232,NaN,NaN,,NaN,0,1,0,NaN,NaN,NaN,NaN,NaN,trial_right,redBox.png,yellowBox.png,redBox.png,al1_con.png,2,1,NaN,NaN,0.85,0.85,1,1,1,0,Volatile,Stable,3.471,0.525,1.66,2.529,expert
5,1673379108535,10/01/2023 19:31:48,1673379108293,0,10/01/2023 19:31:48,111483,5,task-xjip,repeat-7g8d#1->-repeat-38fk#1,26307347,BLIND,7766400,NaN,complete,NaN,63bdb71b374a15fbe31fe02d,computer,Desktop or Laptop,Windows 10,Chrome 108.0.0.0,1500x1000,1500x1000,Start of Day 2,SLS,90,A,Pass,End of Day 1,Pass,NaN,NaN,NaN,Pass,NaN,Pass,NaN,Start of Day 2,NaN,schedule_A,schedule_A,2,1,2,individual,Zone4,timelimit_screen,999.261,NaN,NaN,,NaN,0,1,0,NaN,NaN,1,NaN,NaN,trial_right,redBox.png,yellowBox.png,redBox.png,al1_con.png,2,1,NaN,NaN,0.85,0.85,1,1,1,0,Volatile,Stable,3.471,0.525,1.66,2.529,expert
6,1673379109835,10/01/2023 19:31:49,1673379109579,0,10/01/2023 19:31:49,111483,5,task-xjip,repeat-7g8d#1->-repeat-38fk#1,26307347,BLIND,7766400,NaN,complete,NaN,63bdb71b374a15fbe31fe02d,computer,Desktop or Laptop,Windows 10,Chrome 108.0.0.0,1500x1000,1500x1000,Start of Day 2,SLS,90,A,Pass,End of Day 1,Pass,NaN,NaN,NaN,Pass,NaN,Pass,NaN,Start of Day 2,NaN,schedule_A,schedule_A,2,1,3,offer,Zone2,response_button_image,1279.5,NaN,NaN,yellowBox.png,1,0,1,0,NaN,NaN,NaN,NaN,NaN,trial_right,redBox.png,yellowBox.png,redBox.png,al1_con.png,2,1,NaN,NaN,0.85,0.85,1,1,1,0,Volatile,Stable,3.471,0.525,1.66,2.529,expert
7,1673379111831,10/01/2023 19:31:51,1673379111577,0,10/01/2023 19:31:51,111483,5,task-xjip,repeat-7g8d#1->-repeat-38fk#1,26307347,BLIND,7766400,NaN,complete,NaN,63bdb71b374a15fbe31fe02d,computer,Desktop or Laptop,Windows 10,Chrome 108.0.0.0,1500x1000,1500x1000,Start of Day 2,SLS,90,A,Pass,End of Day 1,Pass,NaN,NaN,NaN,Pass,NaN,Pass,NaN,Start of Day 2,NaN,schedule_A,schedule_A,2,1,4,feedback_l,Zone7,timelimit_screen,1999.531,NaN,NaN,,NaN,0,1,0,NaN,NaN,1,NaN,NaN,trial_right,redBox.png,yellowBox.png,redBox.png,al1_con.png,2,1,NaN,NaN,0.85,0.85,1,1,1,0,Volatile,Stable,3.471,0.525,1.66,2.529,expert
8,1673379111969,10/01/2023 19:31:51,1673379111726,0,10/01/2023 19:31:51,111483,5,task-xjip,repeat-7g8d#1->-repeat-38fk#1,26307347,BLIND,7766400,NaN,complete,NaN,63bdb71b374a15fbe31fe02d,computer,Desktop or Laptop,Windows 10,Chrome 108.0.0.0,1500x1000,1500x1000,Start of Day 2,SLS,90,A,Pass,End of Day 1,Pass,NaN,NaN,NaN,Pass,NaN,Pass,NaN,Start of Day 2,NaN,schedule_A,schedule_A,2,1,6,end,Zone1,timelimit_screen,150.074000000001,NaN,NaN,,NaN,0,1,0,NaN,NaN,1,NaN,NaN,trial_right,redBox.png,yellowBox.png,redBox.png,al1_con.png,2,1,NaN,NaN,0.85,0.85,1,1,1,0,Volatile,Stable,3.471,0.525,1.66,2.529,expert
9,1673379113682,10/01/2023 19:31:53,1673379113438,0,10/01/2023 19:31:53,111483,5,task-xjip,repeat-7g8d#1->-repeat-38fk#1,26307347,BLIND,7766400,NaN,complete,NaN,63bdb71b374a15fbe31fe02d,computer,Desktop or Laptop,Windows 10,Chrome 108.0.0.0,1500x1000,1500x1000,Start of Day 2,SLS,90,A,Pass,End of Day 1,Pass,NaN,NaN,NaN,Pass,NaN,Pass,NaN,Start of Day 2,NaN,schedule_A,schedule_A,3,1,1,Screen 1,Zone1,continue_button,1697.69999998808,NaN,NaN,,NaN,0,1,0,NaN,NaN,NaN,NaN,NaN,trial_left,redBox.png,redBox.png,yellowBox.png,al1_con.png,3,2,NaN,NaN,0.85,0.85,1,1,1,1,Volatile,Stable,1.782,1.168,1.168,2.462,expert
10,1673379114677,10/01/2023 19:31:54,1673379114427,0,10/01/2023 19:31:54,111483,5,task-xjip,repeat-7g8d#1->-repeat-38fk#1,26307347,BLIND,7766400,NaN,complete,NaN,63bdb71b374a15fbe31fe02d,computer,Desktop or Laptop,Windows 10,Chrome 108.0.0.0,1500x1000,1500x1000,Start of Day 2,SLS,90,A,Pass,End of Day 1,Pass,NaN,NaN,NaN,Pass,NaN,Pass,NaN,Start of Day 2,NaN,schedule_A,schedule_A,3,1,2,individual,Zone4,timelimit_screen,1000.314,NaN,NaN,,NaN,0,1,0,NaN,NaN,1,NaN,NaN,trial_left,redBox.png,redBox.png,yellowBox.png,al1_con.png,3,2,NaN,NaN,0.85,0.85,1,1,1,1,Volatile,Stable,1.782,1.168,1.168,2.462,expert
11,1673379117972,10/01/2023 19:31:57,1673379117722,0,10/01/2023 19:31:57,111483,5,task-xjip,repeat-7g8d#1->-repeat-38fk#1,26307347,BLIND,7766400,NaN,complete,NaN,63bdb71b374a15fbe31fe02d,computer,Desktop or Laptop,Windows 10,Chrome 108.0.0.0,1500x1000,1500x1000,Start of Day 2,SLS,90,A,Pass,End of Day 1,Pass,NaN,NaN,NaN,Pass,NaN,Pass,NaN,Start of Day 2,NaN,schedule_A,schedule_A,3,1,3,offer,bluebox,response_button_image,3289.69999998808,NaN,NaN,yellowBox.png,1,0,1,0,NaN,NaN,NaN,NaN,NaN,trial_left,redBox.png,redBox.png,yellowBox.png,al1_con.png,3,2,NaN,NaN,0.85,0.85,1,1,1,1,Volatile,Stable,1.782,1.168,1.168,2.462,expert
12,1673379119966,10/01/2023 19:31:59,1673379119710,0,10/01/2023 19:31:59,111483,5,task-xjip,repeat-7g8d#1->-repeat-38fk#1,26307347,BLIND,7766400,NaN,complete,NaN,63bdb71b374a15fbe31fe02d,computer,Desktop or Laptop,Windows 10,Chrome 108.0.0.0,1500x1000,1500x1000,Start of Day 2,SLS,90,A,Pass,End of Day 1,Pass,NaN,NaN,NaN,Pass,NaN,Pass,NaN,Start of Day 2,NaN,schedule_A,schedule_A,3,1,5,feedback_r,Zone7,timelimit_screen,2000.049,NaN,NaN,,NaN,0,1,0,NaN,NaN,1,NaN,NaN,trial_left,redBox.png,redBox.png,yellowBox.png,al1_con.png,3,2,NaN,NaN,0.85,0.85,1,1,1,1,Volatile,Stable,1.782,1.168,1.168,2.462,expert
13,1673379120117,10/01/2023 19:32:00,1673379119860,0,10/01/2023 19:31:59,111483,5,task-xjip,repeat-7g8d#1->-repeat-38fk#1,26307347,BLIND,7766400,NaN,complete,NaN,63bdb71b374a15fbe31fe02d,computer,Desktop or Laptop,Windows 10,Chrome 108.0.0.0,1500x1000,1500x1000,Start of Day 2,SLS,90,A,Pass,End of Day 1,Pass,NaN,NaN,NaN,Pass,NaN,Pass,NaN,Start of Day 2,NaN,schedule_A,schedule_A,3,1,6,end,Zone1,timelimit_screen,150.263999999999,NaN,NaN,,NaN,0,1,0,NaN,NaN,1,NaN,NaN,trial_left,redBox.png,redBox.png,yellowBox.png,al1_con.png,3,2,NaN,NaN,0.85,0.85,1,1,1,1,Volatile,Stable,1.782,1.168,1.168,2.462,expert
14,1673379121108,10/01/2023 19:32:01,1673379120864,0,10/01/2023 19:32:00,111483,5,task-xjip,repeat-7g8d#1->-repeat-38fk#1,26307347,BLIND,7766400,NaN,complete,NaN,63bdb71b374a15fbe31fe02d,computer,Desktop or Laptop,Windows 10,Chrome 108.0.0.0,1500x1000,1500x1000,Start of Day 2,SLS,90,A,Pass,End of Day 1,Pass,NaN,NaN,NaN,Pass,NaN,Pass,NaN,Start of Day 2,NaN,schedule_A,schedule_A,4,2,1,Screen 1,Zone1,continue_button,992.199999988079,NaN,NaN,,NaN,0,1,0,NaN,NaN,NaN,NaN,NaN,trial_right,redBox.png,yellowBox.png,redBox.png,al1_con.png,4,3,NaN,NaN,0.85,0.85,1,1,1,0,Volatile,Stable,1.983,1.181,0.538,1.588,expert
15,1673379122119,10/01/2023 19:32:02,1673379121861,0,10/01/2023 19:32:01,111483,5,task-xjip,repeat-7g8d#1->-repeat-38fk#1,26307347,BLIND,7766400,NaN,complete,NaN,63bdb71b374a15fbe31fe02d,computer,Desktop or Laptop,Windows 10,Chrome 108.0.0.0,1500x1000,1500x1000,Start of Day 2,SLS,90,A,Pass,End of Day 1,Pass,NaN,NaN,NaN,Pass,NaN,Pass,NaN,Start of Day 2,NaN,schedule_A,schedule_A,4,2,2,individual,Zone4,timelimit_screen,999.709999999999,NaN,NaN,,NaN,0,1,0,NaN,NaN,1,NaN,NaN,trial_right,redBox.png,yellowBox.png,redBox.png,al1_con.png,4,3,NaN,NaN,0.85,0.85,1,1,1,0,Volatile,Stable,1.983,1.181,0.538,1.588,expert
16,1673379123245,10/01/2023 19:32:03,1673379123001,0,10/01/2023 19:32:03,111483,5,task-xjip,repeat-7g8d#1->-repeat-38fk#1,26307347,BLIND,7766400,NaN,complete,NaN,63bdb71b374a15fbe31fe02d,computer,Desktop or Laptop,Windows 10,Chrome 108.0.0.0,1500x1000,1500x1000,Start of Day 2,SLS,90,A,Pass,End of Day 1,Pass,NaN,NaN,NaN,Pass,NaN,Pass,NaN,Start of Day 2,NaN,schedule_A,schedule_A,4,2,3,offer,Zone3,response_button_image,1134,NaN,NaN,redBox.png,1,1,0,0,NaN,NaN,NaN,NaN,NaN,trial_right,redBox.png,yellowBox.png,redBox.png,al1_con.png,4,3,NaN,NaN,0.85,0.85,1,1,1,0,Volatile,Stable,1.983,1.181,0.538,1.588,expert
17,1673379125237,10/01/2023 19:32:05,1673379124993,0,10/01/2023 19:32:04,111483,5,task-xjip,repeat-7g8d#1->-repeat-38fk#1,26307347,BLIND,7766400,NaN,complete,NaN,63bdb71b374a15fbe31fe02d,computer,Desktop or Laptop,Windows 10,Chrome 108.0.0.0,1500x1000,1500x1000,Start of Day 2,SLS,90,A,Pass,End of Day 1,Pass,NaN,NaN,NaN,Pass,NaN,Pass,NaN,Start of Day 2,NaN,schedule_A,schedule_A,4,2,5,feedback_r,Zone7,timelimit_screen,1999.916,NaN,NaN,,NaN,0,1,0,NaN,NaN,1,NaN,NaN,trial_right,redBox.png,yellowBox.png,redBox.png,al1_con.png,4,3,NaN,NaN,0.85,0.85,1,1,1,0,Volatile,Stable,1.983,1.181,0.538,1.588,expert
18,1673379125401,10/01/2023 19:32:05,1673379125143,0,10/01/2023 19:32:05,111483,5,task-xjip,repeat-7g8d#1->-repeat-38fk#1,26307347,BLIND,7766400,NaN,complete,NaN,63bdb71b374a15fbe31fe02d,computer,Desktop or Laptop,Windows 10,Chrome 108.0.0.0,1500x1000,1500x1000,Start of Day 2,SLS,90,A,Pass,End of Day 1,Pass,NaN,NaN,NaN,Pass,NaN,Pass,NaN,Start of Day 2,NaN,schedule_A,schedule_A,4,2,6,end,Zone1,timelimit_screen,150.140000000003,NaN,NaN,,NaN,0,1,0,NaN,NaN,1,NaN,NaN,trial_right,redBox.png,yellowBox.png,redBox.png,al1_con.png,4,3,NaN,NaN,0.85,0.85,1,1,1,0,Volatile,Stable,1.983,1.181,0.538,1.588,expert
19,1673379127716,10/01/2023 19:32:07,1673379127471,0,10/01/2023 19:32:07,111483,5,task-xjip,repeat-7g8d#1->-repeat-38fk#1,26307347,BLIND,7766400,NaN,complete,NaN,63bdb71b374a15fbe31fe02d,computer,Desktop or Laptop,Windows 10,Chrome 108.0.0.0,1500x1000,1500x1000,Start of Day 2,SLS,90,A,Pass,End of Day 1,Pass,NaN,NaN,NaN,Pass,NaN,Pass,NaN,Start of Day 2,NaN,schedule_A,schedule_A,5,3,1,Screen 1,Zone1,continue_button,2316.09999996424,NaN,NaN,,NaN,0,1,0,NaN,NaN,NaN,NaN,NaN,trial_right,redBox.png,yellowBox.png,redBox.png,al1_con.png,5,4,NaN,NaN,0.85,0.85,1,1,1,0,Volatile,Stable,1.529,0.891,1.004,1,expert
20,1673379128701,10/01/2023 19:32:08,1673379128460,0,10/01/2023 19:32:08,111483,5,task-xjip,repeat-7g8d#1->-repeat-38fk#1,26307347,BLIND,7766400,NaN,complete,NaN,63bdb71b374a15fbe31fe02d,computer,Desktop or Laptop,Windows 10,Chrome 108.0.0.0,1500x1000,1500x1000,Start of Day 2,SLS,90,A,Pass,End of Day 1,Pass,NaN,NaN,NaN,Pass,NaN,Pass,NaN,Start of Day 2,NaN,schedule_A,schedule_A,5,3,2,individual,Zone4,timelimit_screen,999.981,NaN,NaN,,NaN,0,1,0,NaN,NaN,1,NaN,NaN,trial_right,redBox.png,yellowBox.png,redBox.png,al1_con.png,5,4,NaN,NaN,0.85,0.85,1,1,1,0,Volatile,Stable,1.529,0.891,1.004,1,expert
21,1673379129820,10/01/2023 19:32:09,1673379129565,0,10/01/2023 19:32:09,111483,5,task-xjip,repeat-7g8d#1->-repeat-38fk#1,26307347,BLIND,7766400,NaN,complete,NaN,63bdb71b374a15fbe31fe02d,computer,Desktop or Laptop,Windows 10,Chrome 108.0.0.0,1500x1000,1500x1000,Start of Day 2,SLS,90,A,Pass,End of Day 1,Pass,NaN,NaN,NaN,Pass,NaN,Pass,NaN,Start of Day 2,NaN,schedule_A,schedule_A,5,3,3,offer,Zone3,response_button_image,1098.39999997616,NaN,NaN,redBox.png,1,1,0,0,NaN,NaN,NaN,NaN,NaN,trial_right,redBox.png,yellowBox.png,redBox.png,al1_con.png,5,4,NaN,NaN,0.85,0.85,1,1,1,0,Volatile,Stable,1.529,0.891,1.004,1,expert
22,1673379131804,10/01/2023 19:32:11,1673379131560,0,10/01/2023 19:32:11,111483,5,task-xjip,repeat-7g8d#1->-repeat-38fk#1,26307347,BLIND,7766400,NaN,complete,NaN,63bdb71b374a15fbe31fe02d,computer,Desktop or Laptop,Windows 10,Chrome 108.0.0.0,1500x1000,1500x1000,Start of Day 2,SLS,90,A,Pass,End of Day 1,Pass,NaN,NaN,NaN,Pass,NaN,Pass,NaN,Start of Day 2,NaN,schedule_A,schedule_A,5,3,5,feedback_r,Zone7,timelimit_screen,1999.508,NaN,NaN,,NaN,0,1,0,NaN,NaN,1,NaN,NaN,trial_right,redBox.png,yellowBox.png,redBox.png,al1_con.png,5,4,NaN,NaN,0.85,0.85,1,1,1,0,Volatile,Stable,1.529,0.891,1.004,1,expert
23,1673379131954,10/01/2023 19:32:11,1673379131710,0,10/01/2023 19:32:11,111483,5,task-xjip,repeat-7g8d#1->-repeat-38fk#1,26307347,BLIND,7766400,NaN,complete,NaN,63bdb71b374a15fbe31fe02d,computer,Desktop or Laptop,Windows 10,Chrome 108.0.0.0,1500x1000,1500x1000,Start of Day 2,SLS,90,A,Pass,End of Day 1,Pass,NaN,NaN,NaN,Pass,NaN,Pass,NaN,Start of Day 2,NaN,schedule_A,schedule_A,5,3,6,end,Zone1,timelimit_screen,150.008000000002,NaN,NaN,,NaN,0,1,0,NaN,NaN,1,NaN,NaN,trial_right,redBox.png,yellowBox.png,redBox.png,al1_con.png,5,4,NaN,NaN,0.85,0.85,1,1,1,0,Volatile,Stable,1.529,0.891,1.004,1,expert
24,1673379133123,10/01/2023 19:32:13,1673379132863,0,10/01/2023 19:32:12,111483,5,task-xjip,repeat-7g8d#1->-repeat-38fk#1,26307347,BLIND,7766400,NaN,complete,NaN,63bdb71b374a15fbe31fe02d,computer,Desktop or Laptop,Windows 10,Chrome 108.0.0.0,1500x1000,1500x1000,Start of Day 2,SLS,90,A,Pass,End of Day 1,Pass,NaN,NaN,NaN,Pass,NaN,Pass,NaN,Start of Day 2,NaN,schedule_A,schedule_A,6,2,1,Screen 1,Zone1,continue_button,1142.40000003576,NaN,NaN,,NaN,0,1,0,NaN,NaN,NaN,NaN,NaN,trial_left,redBox.png,redBox.png,yellowBox.png,al1_con.png,6,5,NaN,NaN,0.85,0.85,1,1,1,1,Volatile,Stable,1.832,1.118,0.752,1.79,expert
25,1673379134099,10/01/2023 19:32:14,1673379133860,0,10/01/2023 19:32:13,111483,5,task-xjip,repeat-7g8d#1->-repeat-38fk#1,26307347,BLIND,7766400,NaN,complete,NaN,63bdb71b374a15fbe31fe02d,computer,Desktop or Laptop,Windows 10,Chrome 108.0.0.0,1500x1000,1500x1000,Start of Day 2,SLS,90,A,Pass,End of Day 1,Pass,NaN,NaN,NaN,Pass,NaN,Pass,NaN,Start of Day 2,NaN,schedule_A,schedule_A,6,2,2,individual,Zone4,timelimit_screen,999.883000000002,NaN,NaN,,NaN,0,1,0,NaN,NaN,1,NaN,NaN,trial_left,redBox.png,redBox.png,yellowBox.png,al1_con.png,6,5,NaN,NaN,0.85,0.85,1,1,1,1,Volatile,Stable,1.832,1.118,0.752,1.79,expert
26,1673379135272,10/01/2023 19:32:15,1673379135030,0,10/01/2023 19:32:15,111483,5,task-xjip,repeat-7g8d#1->-repeat-38fk#1,26307347,BLIND,7766400,NaN,complete,NaN,63bdb71b374a15fbe31fe02d,computer,Desktop or Laptop,Windows 10,Chrome 108.0.0.0,1500x1000,1500x1000,Start of Day 2,SLS,90,A,Pass,End of Day 1,Pass,NaN,NaN,NaN,Pass,NaN,Pass,NaN,Start of Day 2,NaN,schedule_A,schedule_A,6,2,3,offer,Zone2,response_button_image,1164.10000002384,NaN,NaN,redBox.png,1,1,0,0,NaN,NaN,NaN,NaN,NaN,trial_left,redBox.png,redBox.png,yellowBox.png,al1_con.png,6,5,NaN,NaN,0.85,0.85,1,1,1,1,Volatile,Stable,1.832,1.118,0.752,1.79,expert
27,1673379137273,10/01/2023 19:32:17,1673379137027,0,10/01/2023 19:32:17,111483,5,task-xjip,repeat-7g8d#1->-repeat-38fk#1,26307347,BLIND,7766400,NaN,complete,NaN,63bdb71b374a15fbe31fe02d,computer,Desktop or Laptop,Windows 10,Chrome 108.0.0.0,1500x1000,1500x1000,Start of Day 2,SLS,90,A,Pass,End of Day 1,Pass,NaN,NaN,NaN,Pass,NaN,Pass,NaN,Start of Day 2,NaN,schedule_A,schedule_A,6,2,4,feedback_l,Zone7,timelimit_screen,2000.06,NaN,NaN,,NaN,0,1,0,NaN,NaN,1,NaN,NaN,trial_left,redBox.png,redBox.png,yellowBox.png,al1_con.png,6,5,NaN,NaN,0.85,0.85,1,1,1,1,Volatile,Stable,1.832,1.118,0.752,1.79,expert
28,1673379137421,10/01/2023 19:32:17,1673379137177,0,10/01/2023 19:32:17,111483,5,task-xjip,repeat-7g8d#1->-repeat-38fk#1,26307347,BLIND,7766400,NaN,complete,NaN,63bdb71b374a15fbe31fe02d,computer,Desktop or Laptop,Windows 10,Chrome 108.0.0.0,1500x1000,1500x1000,Start of Day 2,SLS,90,A,Pass,End of Day 1,Pass,NaN,NaN,NaN,Pass,NaN,Pass,NaN,Start of Day 2,NaN,schedule_A,schedule_A,6,2,6,end,Zone1,timelimit_screen,149.940000000002,NaN,NaN,,NaN,0,1,0,NaN,NaN,1,NaN,NaN,trial_left,redBox.png,redBox.png,yellowBox.png,al1_con.png,6,5,NaN,NaN,0.85,0.85,1,1,1,1,Volatile,Stable,1.832,1.118,0.752,1.79,expert
29,1673379138871,10/01/2023 19:32:18,1673379138630,0,10/01/2023 19:32:18,111483,5,task-xjip,repeat-7g8d#1->-repeat-38fk#1,26307347,BLIND,7766400,NaN,complete,NaN,63bdb71b374a15fbe31fe02d,computer,Desktop or Laptop,Windows 10,Chrome 108.0.0.0,1500x1000,1500x1000,Start of Day 2,SLS,90,A,Pass,End of Day 1,Pass,NaN,NaN,NaN,Pass,NaN,Pass,NaN,Start of Day 2,NaN,schedule_A,schedule_A,7,4,1,Screen 1,Zone1,continue_button,1439,NaN,NaN,,NaN,0,1,0,NaN,NaN,NaN,NaN,NaN,trial_right,yellowBox.png,redBox.png,yellowBox.png,al1_con.png,7,6,NaN,NaN,0.15,0.85,0,1,0,1,Volatile,Stable,3.294,0.815,1.282,2.664,expert
30,1673379139871,10/01/2023 19:32:19,1673379139627,0,10/01/2023 19:32:19,111483,5,task-xjip,repeat-7g8d#1->-repeat-38fk#1,26307347,BLIND,7766400,NaN,complete,NaN,63bdb71b374a15fbe31fe02d,computer,Desktop or Laptop,Windows 10,Chrome 108.0.0.0,1500x1000,1500x1000,Start of Day 2,SLS,90,A,Pass,End of Day 1,Pass,NaN,NaN,NaN,Pass,NaN,Pass,NaN,Start of Day 2,NaN,schedule_A,schedule_A,7,4,2,individual,Zone4,timelimit_screen,1000.174,NaN,NaN,,NaN,0,1,0,NaN,NaN,1,NaN,NaN,trial_right,yellowBox.png,redBox.png,yellowBox.png,al1_con.png,7,6,NaN,NaN,0.15,0.85,0,1,0,1,Volatile,Stable,3.294,0.815,1.282,2.664,expert
31,1673379140965,10/01/2023 19:32:20,1673379140718,0,10/01/2023 19:32:20,111483,5,task-xjip,repeat-7g8d#1->-repeat-38fk#1,26307347,BLIND,7766400,NaN,complete,NaN,63bdb71b374a15fbe31fe02d,computer,Desktop or Laptop,Windows 10,Chrome 108.0.0.0,1500x1000,1500x1000,Start of Day 2,SLS,90,A,Pass,End of Day 1,Pass,NaN,NaN,NaN,Pass,NaN,Pass,NaN,Start of Day 2,NaN,schedule_A,schedule_A,7,4,3,offer,Zone3,response_button_image,1085.19999998808,NaN,NaN,yellowBox.png,1,1,0,0,NaN,NaN,NaN,NaN,NaN,trial_right,yellowBox.png,redBox.png,yellowBox.png,al1_con.png,7,6,NaN,NaN,0.15,0.85,0,1,0,1,Volatile,Stable,3.294,0.815,1.282,2.664,expert
32,1673379142965,10/01/2023 19:32:22,1673379142712,0,10/01/2023 19:32:22,111483,5,task-xjip,repeat-7g8d#1->-repeat-38fk#1,26307347,BLIND,7766400,NaN,complete,NaN,63bdb71b374a15fbe31fe02d,computer,Desktop or Laptop,Windows 10,Chrome 108.0.0.0,1500x1000,1500x1000,Start of Day 2,SLS,90,A,Pass,End of Day 1,Pass,NaN,NaN,NaN,Pass,NaN,Pass,NaN,Start of Day 2,NaN,schedule_A,schedule_A,7,4,5,feedback_r,Zone7,timelimit_screen,1999.884,NaN,NaN,,NaN,0,1,0,NaN,NaN,1,NaN,NaN,trial_right,yellowBox.png,redBox.png,yellowBox.png,al1_con.png,7,6,NaN,NaN,0.15,0.85,0,1,0,1,Volatile,Stable,3.294,0.815,1.282,2.664,expert
33,1673379143101,10/01/2023 19:32:23,1673379142860,0,10/01/2023 19:32:22,111483,5,task-xjip,repeat-7g8d#1->-repeat-38fk#1,26307347,BLIND,7766400,NaN,complete,NaN,63bdb71b374a15fbe31fe02d,computer,Desktop or Laptop,Windows 10,Chrome 108.0.0.0,1500x1000,1500x1000,Start of Day 2,SLS,90,A,Pass,End of Day 1,Pass,NaN,NaN,NaN,Pass,NaN,Pass,NaN,Start of Day 2,NaN,schedule_A,schedule_A,7,4,6,end,Zone1,timelimit_screen,150.004000000001,NaN,NaN,,NaN,0,1,0,NaN,NaN,1,NaN,NaN,trial_right,yellowBox.png,redBox.png,yellowBox.png,al1_con.png,7,6,NaN,NaN,0.15,0.85,0,1,0,1,Volatile,Stable,3.294,0.815,1.282,2.664,expert
34,1673379144630,10/01/2023 19:32:24,1673379144385,0,10/01/2023 19:32:24,111483,5,task-xjip,repeat-7g8d#1->-repeat-38fk#1,26307347,BLIND,7766400,NaN,complete,NaN,63bdb71b374a15fbe31fe02d,computer,Desktop or Laptop,Windows 10,Chrome 108.0.0.0,1500x1000,1500x1000,Start of Day 2,SLS,90,A,Pass,End of Day 1,Pass,NaN,NaN,NaN,Pass,NaN,Pass,NaN,Start of Day 2,NaN,schedule_A,schedule_A,8,3,1,Screen 1,Zone1,continue_button,1512.5,NaN,NaN,,NaN,0,1,0,NaN,NaN,NaN,NaN,NaN,trial_left,yellowBox.png,yellowBox.png,redBox.png,al1_con.png,8,7,NaN,NaN,0.15,0.85,0,1,0,0,Volatile,Stable,3.269,1.37,1.786,2.328,expert
35,1673379145632,10/01/2023 19:32:25,1673379145377,0,10/01/2023 19:32:25,111483,5,task-xjip,repeat-7g8d#1->-repeat-38fk#1,26307347,BLIND,7766400,NaN,complete,NaN,63bdb71b374a15fbe31fe02d,computer,Desktop or Laptop,Windows 10,Chrome 108.0.0.0,1500x1000,1500x1000,Start of Day 2,SLS,90,A,Pass,End of Day 1,Pass,NaN,NaN,NaN,Pass,NaN,Pass,NaN,Start of Day 2,NaN,schedule_A,schedule_A,8,3,2,individual,Zone4,timelimit_screen,1000.289,NaN,NaN,,NaN,0,1,0,NaN,NaN,1,NaN,NaN,trial_left,yellowBox.png,yellowBox.png,redBox.png,al1_con.png,8,7,NaN,NaN,0.15,0.85,0,1,0,0,Volatile,Stable,3.269,1.37,1.786,2.328,expert
36,1673379146626,10/01/2023 19:32:26,1673379146384,0,10/01/2023 19:32:26,111483,5,task-xjip,repeat-7g8d#1->-repeat-38fk#1,26307347,BLIND,7766400,NaN,complete,NaN,63bdb71b374a15fbe31fe02d,computer,Desktop or Laptop,Windows 10,Chrome 108.0.0.0,1500x1000,1500x1000,Start of Day 2,SLS,90,A,Pass,End of Day 1,Pass,NaN,NaN,NaN,Pass,NaN,Pass,NaN,Start of Day 2,NaN,schedule_A,schedule_A,8,3,3,offer,Zone2,response_button_image,1000.70000004768,NaN,NaN,yellowBox.png,1,1,0,0,NaN,NaN,NaN,NaN,NaN,trial_left,yellowBox.png,yellowBox.png,redBox.png,al1_con.png,8,7,NaN,NaN,0.15,0.85,0,1,0,0,Volatile,Stable,3.269,1.37,1.786,2.328,expert
37,1673379148619,10/01/2023 19:32:28,1673379148377,0,10/01/2023 19:32:28,111483,5,task-xjip,repeat-7g8d#1->-repeat-38fk#1,26307347,BLIND,7766400,NaN,complete,NaN,63bdb71b374a15fbe31fe02d,computer,Desktop or Laptop,Windows 10,Chrome 108.0.0.0,1500x1000,1500x1000,Start of Day 2,SLS,90,A,Pass,End of Day 1,Pass,NaN,NaN,NaN,Pass,NaN,Pass,NaN,Start of Day 2,NaN,schedule_A,schedule_A,8,3,4,feedback_l,Zone7,timelimit_screen,2000.162,NaN,NaN,,NaN,0,1,0,NaN,NaN,1,NaN,NaN,trial_left,yellowBox.png,yellowBox.png,redBox.png,al1_con.png,8,7,NaN,NaN,0.15,0.85,0,1,0,0,Volatile,Stable,3.269,1.37,1.786,2.328,expert
38,1673379148792,10/01/2023 19:32:28,1673379148527,0,10/01/2023 19:32:28,111483,5,task-xjip,repeat-7g8d#1->-repeat-38fk#1,26307347,BLIND,7766400,NaN,complete,NaN,63bdb71b374a15fbe31fe02d,computer,Desktop or Laptop,Windows 10,Chrome 108.0.0.0,1500x1000,1500x1000,Start of Day 2,SLS,90,A,Pass,End of Day 1,Pass,NaN,NaN,NaN,Pass,NaN,Pass,NaN,Start of Day 2,NaN,schedule_A,schedule_A,8,3,6,end,Zone1,timelimit_screen,149.911999999997,NaN,NaN,,NaN,0,1,0,NaN,NaN,1,NaN,NaN,trial_left,yellowBox.png,yellowBox.png,redBox.png,al1_con.png,8,7,NaN,NaN,0.15,0.85,0,1,0,0,Volatile,Stable,3.269,1.37,1.786,2.328,expert
39,1673379150494,10/01/2023 19:32:30,1673379150251,0,10/01/2023 19:32:30,111483,5,task-xjip,repeat-7g8d#1->-repeat-38fk#1,26307347,BLIND,7766400,NaN,complete,NaN,63bdb71b374a15fbe31fe02d,computer,Desktop or Laptop,Windows 10,Chrome 108.0.0.0,1500x1000,1500x1000,Start of Day 2,SLS,90,A,Pass,End of Day 1,Pass,NaN,NaN,NaN,Pass,NaN,Pass,NaN,Start of Day 2,NaN,schedule_A,schedule_A,9,4,1,Screen 1,Zone1,continue_button,1712.69999998808,NaN,NaN,,NaN,0,1,0,NaN,NaN,NaN,NaN,NaN,trial_left,yellowBox.png,redBox.png,yellowBox.png,al1_con.png,9,8,NaN,NaN,0.15,0.85,0,0,1,1,Volatile,Stable,3.975,0.576,1.256,1.807,expert
40,1673379151502,10/01/2023 19:32:31,1673379151244,0,10/01/2023 19:32:31,111483,5,task-xjip,repeat-7g8d#1->-repeat-38fk#1,26307347,BLIND,7766400,NaN,complete,NaN,63bdb71b374a15fbe31fe02d,computer,Desktop or Laptop,Windows 10,Chrome 108.0.0.0,1500x1000,1500x1000,Start of Day 2,SLS,90,A,Pass,End of Day 1,Pass,NaN,NaN,NaN,Pass,NaN,Pass,NaN,Start of Day 2,NaN,schedule_A,schedule_A,9,4,2,individual,Zone4,timelimit_screen,999.536999999997,NaN,NaN,,NaN,0,1,0,NaN,NaN,1,NaN,NaN,trial_left,yellowBox.png,redBox.png,yellowBox.png,al1_con.png,9,8,NaN,NaN,0.15,0.85,0,0,1,1,Volatile,Stable,3.975,0.576,1.256,1.807,expert
41,1673379152711,10/01/2023 19:32:32,1673379152466,0,10/01/2023 19:32:32,111483,5,task-xjip,repeat-7g8d#1->-repeat-38fk#1,26307347,BLIND,7766400,NaN,complete,NaN,63bdb71b374a15fbe31fe02d,computer,Desktop or Laptop,Windows 10,Chrome 108.0.0.0,1500x1000,1500x1000,Start of Day 2,SLS,90,A,Pass,End of Day 1,Pass,NaN,NaN,NaN,Pass,NaN,Pass,NaN,Start of Day 2,NaN,schedule_A,schedule_A,9,4,3,offer,Zone2,response_button_image,1217.10000002384,NaN,NaN,redBox.png,1,0,1,0,NaN,NaN,NaN,NaN,NaN,trial_left,yellowBox.png,redBox.png,yellowBox.png,al1_con.png,9,8,NaN,NaN,0.15,0.85,0,0,1,1,Volatile,Stable,3.975,0.576,1.256,1.807,expert
42,1673379154702,10/01/2023 19:32:34,1673379154460,0,10/01/2023 19:32:34,111483,5,task-xjip,repeat-7g8d#1->-repeat-38fk#1,26307347,BLIND,7766400,NaN,complete,NaN,63bdb71b374a15fbe31fe02d,computer,Desktop or Laptop,Windows 10,Chrome 108.0.0.0,1500x1000,1500x1000,Start of Day 2,SLS,90,A,Pass,End of Day 1,Pass,NaN,NaN,NaN,Pass,NaN,Pass,NaN,Start of Day 2,NaN,schedule_A,schedule_A,9,4,4,feedback_l,Zone7,timelimit_screen,2000.022,NaN,NaN,,NaN,0,1,0,NaN,NaN,1,NaN,NaN,trial_left,yellowBox.png,redBox.png,yellowBox.png,al1_con.png,9,8,NaN,NaN,0.15,0.85,0,0,1,1,Volatile,Stable,3.975,0.576,1.256,1.807,expert
43,1673379154856,10/01/2023 19:32:34,1673379154611,0,10/01/2023 19:32:34,111483,5,task-xjip,repeat-7g8d#1->-repeat-38fk#1,26307347,BLIND,7766400,NaN,complete,NaN,63bdb71b374a15fbe31fe02d,computer,Desktop or Laptop,Windows 10,Chrome 108.0.0.0,1500x1000,1500x1000,Start of Day 2,SLS,90,A,Pass,End of Day 1,Pass,NaN,NaN,NaN,Pass,NaN,Pass,NaN,Start of Day 2,NaN,schedule_A,schedule_A,9,4,6,end,Zone1,timelimit_screen,150.021000000001,NaN,NaN,,NaN,0,1,0,NaN,NaN,1,NaN,NaN,trial_left,yellowBox.png,redBox.png,yellowBox.png,al1_con.png,9,8,NaN,NaN,0.15,0.85,0,0,1,1,Volatile,Stable,3.975,0.576,1.256,1.807,expert
44,1673379158961,10/01/2023 19:32:38,1673379158694,0,10/01/2023 19:32:38,111483,5,task-xjip,repeat-7g8d#1->-repeat-38fk#1,26307347,BLIND,7766400,NaN,complete,NaN,63bdb71b374a15fbe31fe02d,computer,Desktop or Laptop,Windows 10,Chrome 108.0.0.0,1500x1000,1500x1000,Start of Day 2,SLS,90,A,Pass,End of Day 1,Pass,NaN,NaN,NaN,Pass,NaN,Pass,NaN,Start of Day 2,NaN,schedule_A,schedule_A,10,5,1,Screen 1,Zone1,continue_button,4071.69999998808,NaN,NaN,,NaN,0,1,0,NaN,NaN,NaN,NaN,NaN,trial_right,redBox.png,redBox.png,yellowBox.png,al1_con.png,10,9,NaN,NaN,0.15,0.85,1,0,0,1,Volatile,Stable,3.798,1.055,1.559,2.042,expert
45,1673379159920,10/01/2023 19:32:39,1673379159677,0,10/01/2023 19:32:39,111483,5,task-xjip,repeat-7g8d#1->-repeat-38fk#1,26307347,BLIND,7766400,NaN,complete,NaN,63bdb71b374a15fbe31fe02d,computer,Desktop or Laptop,Windows 10,Chrome 108.0.0.0,1500x1000,1500x1000,Start of Day 2,SLS,90,A,Pass,End of Day 1,Pass,NaN,NaN,NaN,Pass,NaN,Pass,NaN,Start of Day 2,NaN,schedule_A,schedule_A,10,5,2,individual,Zone4,timelimit_screen,1000.045,NaN,NaN,,NaN,0,1,0,NaN,NaN,1,NaN,NaN,trial_right,redBox.png,redBox.png,yellowBox.png,al1_con.png,10,9,NaN,NaN,0.15,0.85,1,0,0,1,Volatile,Stable,3.798,1.055,1.559,2.042,expert
46,1673379161747,10/01/2023 19:32:41,1673379161505,0,10/01/2023 19:32:41,111483,5,task-xjip,repeat-7g8d#1->-repeat-38fk#1,26307347,BLIND,7766400,NaN,complete,NaN,63bdb71b374a15fbe31fe02d,computer,Desktop or Laptop,Windows 10,Chrome 108.0.0.0,1500x1000,1500x1000,Start of Day 2,SLS,90,A,Pass,End of Day 1,Pass,NaN,NaN,NaN,Pass,NaN,Pass,NaN,Start of Day 2,NaN,schedule_A,schedule_A,10,5,3,offer,Zone3,response_button_image,1821.89999997616,NaN,NaN,yellowBox.png,1,0,1,0,NaN,NaN,NaN,NaN,NaN,trial_right,redBox.png,redBox.png,yellowBox.png,al1_con.png,10,9,NaN,NaN,0.15,0.85,1,0,0,1,Volatile,Stable,3.798,1.055,1.559,2.042,expert
47,1673379163743,10/01/2023 19:32:43,1673379163494,0,10/01/2023 19:32:43,111483,5,task-xjip,repeat-7g8d#1->-repeat-38fk#1,26307347,BLIND,7766400,NaN,complete,NaN,63bdb71b374a15fbe31fe02d,computer,Desktop or Laptop,Windows 10,Chrome 108.0.0.0,1500x1000,1500x1000,Start of Day 2,SLS,90,A,Pass,End of Day 1,Pass,NaN,NaN,NaN,Pass,NaN,Pass,NaN,Start of Day 2,NaN,schedule_A,schedule_A,10,5,5,feedback_r,Zone7,timelimit_screen,2000.05,NaN,NaN,,NaN,0,1,0,NaN,NaN,1,NaN,NaN,trial_right,redBox.png,redBox.png,yellowBox.png,al1_con.png,10,9,NaN,NaN,0.15,0.85,1,0,0,1,Volatile,Stable,3.798,1.055,1.559,2.042,expert
48,1673379163896,10/01/2023 19:32:43,1673379163644,0,10/01/2023 19:32:43,111483,5,task-xjip,repeat-7g8d#1->-repeat-38fk#1,26307347,BLIND,7766400,NaN,complete,NaN,63bdb71b374a15fbe31fe02d,computer,Desktop or Laptop,Windows 10,Chrome 108.0.0.0,1500x1000,1500x1000,Start of Day 2,SLS,90,A,Pass,End of Day 1,Pass,NaN,NaN,NaN,Pass,NaN,Pass,NaN,Start of Day 2,NaN,schedule_A,schedule_A,10,5,6,end,Zone1,timelimit_screen,149.966,NaN,NaN,,NaN,0,1,0,NaN,NaN,1,NaN,NaN,trial_right,redBox.png,redBox.png,yellowBox.png,al1_con.png,10,9,NaN,NaN,0.15,0.85,1,0,0,1,Volatile,Stable,3.798,1.055,1.559,2.042,expert
49,1673379165642,10/01/2023 19:32:45,1673379165396,0,10/01/2023 19:32:45,111483,5,task-xjip,repeat-7g8d#1->-repeat-38fk#1,26307347,BLIND,7766400,NaN,complete,NaN,63bdb71b374a15fbe31fe02d,computer,Desktop or Laptop,Windows 10,Chrome 108.0.0.0,1500x1000,1500x1000,Start of Day 2,SLS,90,A,Pass,End of Day 1,Pass,NaN,NaN,NaN,Pass,NaN,Pass,NaN,Start of Day 2,NaN,schedule_A,schedule_A,11,6,1,Screen 1,Zone1,continue_button,1741.5,NaN,NaN,,NaN,0,1,0,NaN,NaN,NaN,NaN,NaN,trial_right,yellowBox.png,redBox.png,yellowBox.png,al1_con.png,21,10,NaN,NaN,0.15,0.85,0,1,0,1,Volatile,Stable,1.857,0.5,1.294,2.916,expert
50,1673379166640,10/01/2023 19:32:46,1673379166394,0,10/01/2023 19:32:46,111483,5,task-xjip,repeat-7g8d#1->-repeat-38fk#1,26307347,BLIND,7766400,NaN,complete,NaN,63bdb71b374a15fbe31fe02d,computer,Desktop or Laptop,Windows 10,Chrome 108.0.0.0,1500x1000,1500x1000,Start of Day 2,SLS,90,A,Pass,End of Day 1,Pass,NaN,NaN,NaN,Pass,NaN,Pass,NaN,Start of Day 2,NaN,schedule_A,schedule_A,11,6,2,individual,Zone4,timelimit_screen,1000.09299999999,NaN,NaN,,NaN,0,1,0,NaN,NaN,1,NaN,NaN,trial_right,yellowBox.png,redBox.png,yellowBox.png,al1_con.png,21,10,NaN,NaN,0.15,0.85,0,1,0,1,Volatile,Stable,1.857,0.5,1.294,2.916,expert
51,1673379167730,10/01/2023 19:32:47,1673379167488,0,10/01/2023 19:32:47,111483,5,task-xjip,repeat-7g8d#1->-repeat-38fk#1,26307347,BLIND,7766400,NaN,complete,NaN,63bdb71b374a15fbe31fe02d,computer,Desktop or Laptop,Windows 10,Chrome 108.0.0.0,1500x1000,1500x1000,Start of Day 2,SLS,90,A,Pass,End of Day 1,Pass,NaN,NaN,NaN,Pass,NaN,Pass,NaN,Start of Day 2,NaN,schedule_A,schedule_A,11,6,3,offer,Zone2,response_button_image,1088,NaN,NaN,redBox.png,1,0,1,0,NaN,NaN,NaN,NaN,NaN,trial_right,yellowBox.png,redBox.png,yellowBox.png,al1_con.png,21,10,NaN,NaN,0.15,0.85,0,1,0,1,Volatile,Stable,1.857,0.5,1.294,2.916,expert
52,1673379169732,10/01/2023 19:32:49,1673379169477,0,10/01/2023 19:32:49,111483,5,task-xjip,repeat-7g8d#1->-repeat-38fk#1,26307347,BLIND,7766400,NaN,complete,NaN,63bdb71b374a15fbe31fe02d,computer,Desktop or Laptop,Windows 10,Chrome 108.0.0.0,1500x1000,1500x1000,Start of Day 2,SLS,90,A,Pass,End of Day 1,Pass,NaN,NaN,NaN,Pass,NaN,Pass,NaN,Start of Day 2,NaN,schedule_A,schedule_A,11,6,4,feedback_l,Zone7,timelimit_screen,2000.03600000001,NaN,NaN,,NaN,0,1,0,NaN,NaN,1,NaN,NaN,trial_right,yellowBox.png,redBox.png,yellowBox.png,al1_con.png,21,10,NaN,NaN,0.15,0.85,0,1,0,1,Volatile,Stable,1.857,0.5,1.294,2.916,expert
53,1673379169872,10/01/2023 19:32:49,1673379169627,0,10/01/2023 19:32:49,111483,5,task-xjip,repeat-7g8d#1->-repeat-38fk#1,26307347,BLIND,7766400,NaN,complete,NaN,63bdb71b374a15fbe31fe02d,computer,Desktop or Laptop,Windows 10,Chrome 108.0.0.0,1500x1000,1500x1000,Start of Day 2,SLS,90,A,Pass,End of Day 1,Pass,NaN,NaN,NaN,Pass,NaN,Pass,NaN,Start of Day 2,NaN,schedule_A,schedule_A,11,6,6,end,Zone1,timelimit_screen,150.000999999989,NaN,NaN,,NaN,0,1,0,NaN,NaN,1,NaN,NaN,trial_right,yellowBox.png,redBox.png,yellowBox.png,al1_con.png,21,10,NaN,NaN,0.15,0.85,0,1,0,1,Volatile,Stable,1.857,0.5,1.294,2.916,expert
54,1673379171548,10/01/2023 19:32:51,1673379171294,0,10/01/2023 19:32:51,111483,5,task-xjip,repeat-7g8d#1->-repeat-38fk#1,26307347,BLIND,7766400,NaN,complete,NaN,63bdb71b374a15fbe31fe02d,computer,Desktop or Laptop,Windows 10,Chrome 108.0.0.0,1500x1000,1500x1000,Start of Day 2,SLS,90,A,Pass,End of Day 1,Pass,NaN,NaN,NaN,Pass,NaN,Pass,NaN,Start of Day 2,NaN,schedule_A,schedule_A,12,5,1,Screen 1,Zone1,continue_button,1656.60000002384,NaN,NaN,,NaN,0,1,0,NaN,NaN,NaN,NaN,NaN,trial_left,redBox.png,redBox.png,yellowBox.png,al1_con.png,22,11,NaN,NaN,0.85,0.85,1,1,1,1,Volatile,Stable,1.126,1.849,1.483,1.689,expert
55,1673379172536,10/01/2023 19:32:52,1673379172293,0,10/01/2023 19:32:52,111483,5,task-xjip,repeat-7g8d#1->-repeat-38fk#1,26307347,BLIND,7766400,NaN,complete,NaN,63bdb71b374a15fbe31fe02d,computer,Desktop or Laptop,Windows 10,Chrome 108.0.0.0,1500x1000,1500x1000,Start of Day 2,SLS,90,A,Pass,End of Day 1,Pass,NaN,NaN,NaN,Pass,NaN,Pass,NaN,Start of Day 2,NaN,schedule_A,schedule_A,12,5,2,individual,Zone4,timelimit_screen,999.991999999998,NaN,NaN,,NaN,0,1,0,NaN,NaN,1,NaN,NaN,trial_left,redBox.png,redBox.png,yellowBox.png,al1_con.png,22,11,NaN,NaN,0.85,0.85,1,1,1,1,Volatile,Stable,1.126,1.849,1.483,1.689,expert
56,1673379173577,10/01/2023 19:32:53,1673379173333,0,10/01/2023 19:32:53,111483,5,task-xjip,repeat-7g8d#1->-repeat-38fk#1,26307347,BLIND,7766400,NaN,complete,NaN,63bdb71b374a15fbe31fe02d,computer,Desktop or Laptop,Windows 10,Chrome 108.0.0.0,1500x1000,1500x1000,Start of Day 2,SLS,90,A,Pass,End of Day 1,Pass,NaN,NaN,NaN,Pass,NaN,Pass,NaN,Start of Day 2,NaN,schedule_A,schedule_A,12,5,3,offer,Zone2,response_button_image,1033.69999998808,NaN,NaN,redBox.png,1,1,0,0,NaN,NaN,NaN,NaN,NaN,trial_left,redBox.png,redBox.png,yellowBox.png,al1_con.png,22,11,NaN,NaN,0.85,0.85,1,1,1,1,Volatile,Stable,1.126,1.849,1.483,1.689,expert
57,1673379175572,10/01/2023 19:32:55,1673379175327,0,10/01/2023 19:32:55,111483,5,task-xjip,repeat-7g8d#1->-repeat-38fk#1,26307347,BLIND,7766400,NaN,complete,NaN,63bdb71b374a15fbe31fe02d,computer,Desktop or Laptop,Windows 10,Chrome 108.0.0.0,1500x1000,1500x1000,Start of Day 2,SLS,90,A,Pass,End of Day 1,Pass,NaN,NaN,NaN,Pass,NaN,Pass,NaN,Start of Day 2,NaN,schedule_A,schedule_A,12,5,4,feedback_l,Zone7,timelimit_screen,2000.086,NaN,NaN,,NaN,0,1,0,NaN,NaN,1,NaN,NaN,trial_left,redBox.png,redBox.png,yellowBox.png,al1_con.png,22,11,NaN,NaN,0.85,0.85,1,1,1,1,Volatile,Stable,1.126,1.849,1.483,1.689,expert
58,1673379175725,10/01/2023 19:32:55,1673379175477,0,10/01/2023 19:32:55,111483,5,task-xjip,repeat-7g8d#1->-repeat-38fk#1,26307347,BLIND,7766400,NaN,complete,NaN,63bdb71b374a15fbe31fe02d,computer,Desktop or Laptop,Windows 10,Chrome 108.0.0.0,1500x1000,1500x1000,Start of Day 2,SLS,90,A,Pass,End of Day 1,Pass,NaN,NaN,NaN,Pass,NaN,Pass,NaN,Start of Day 2,NaN,schedule_A,schedule_A,12,5,6,end,Zone1,timelimit_screen,149.900999999998,NaN,NaN,,NaN,0,1,0,NaN,NaN,1,NaN,NaN,trial_left,redBox.png,redBox.png,yellowBox.png,al1_con.png,22,11,NaN,NaN,0.85,0.85,1,1,1,1,Volatile,Stable,1.126,1.849,1.483,1.689,expert
59,1673379176716,10/01/2023 19:32:56,1673379176472,0,10/01/2023 19:32:56,111483,5,task-xjip,repeat-7g8d#1->-repeat-38fk#1,26307347,BLIND,7766400,NaN,complete,NaN,63bdb71b374a15fbe31fe02d,computer,Desktop or Laptop,Windows 10,Chrome 108.0.0.0,1500x1000,1500x1000,Start of Day 2,SLS,90,A,Pass,End of Day 1,Pass,NaN,NaN,NaN,Pass,NaN,Pass,NaN,Start of Day 2,NaN,schedule_A,schedule_A,13,7,1,Screen 1,Zone1,continue_button,984.100000023842,NaN,NaN,,NaN,0,1,0,NaN,NaN,NaN,NaN,NaN,trial_right,redBox.png,yellowBox.png,redBox.png,al1_con.png,23,12,NaN,NaN,0.85,0.85,1,1,1,0,Volatile,Stable,2.361,0.992,0.5,1.975,expert
60,1673379177704,10/01/2023 19:32:57,1673379177460,0,10/01/2023 19:32:57,111483,5,task-xjip,repeat-7g8d#1->-repeat-38fk#1,26307347,BLIND,7766400,NaN,complete,NaN,63bdb71b374a15fbe31fe02d,computer,Desktop or Laptop,Windows 10,Chrome 108.0.0.0,1500x1000,1500x1000,Start of Day 2,SLS,90,A,Pass,End of Day 1,Pass,NaN,NaN,NaN,Pass,NaN,Pass,NaN,Start of Day 2,NaN,schedule_A,schedule_A,13,7,2,individual,Zone4,timelimit_screen,1000.022,NaN,NaN,,NaN,0,1,0,NaN,NaN,1,NaN,NaN,trial_right,redBox.png,yellowBox.png,redBox.png,al1_con.png,23,12,NaN,NaN,0.85,0.85,1,1,1,0,Volatile,Stable,2.361,0.992,0.5,1.975,expert
61,1673379178826,10/01/2023 19:32:58,1673379178576,0,10/01/2023 19:32:58,111483,5,task-xjip,repeat-7g8d#1->-repeat-38fk#1,26307347,BLIND,7766400,NaN,complete,NaN,63bdb71b374a15fbe31fe02d,computer,Desktop or Laptop,Windows 10,Chrome 108.0.0.0,1500x1000,1500x1000,Start of Day 2,SLS,90,A,Pass,End of Day 1,Pass,NaN,NaN,NaN,Pass,NaN,Pass,NaN,Start of Day 2,NaN,schedule_A,schedule_A,13,7,3,offer,Zone3,response_button_image,1110,NaN,NaN,redBox.png,1,1,0,0,NaN,NaN,NaN,NaN,NaN,trial_right,redBox.png,yellowBox.png,redBox.png,al1_con.png,23,12,NaN,NaN,0.85,0.85,1,1,1,0,Volatile,Stable,2.361,0.992,0.5,1.975,expert
62,1673379180824,10/01/2023 19:33:00,1673379180560,0,10/01/2023 19:33:00,111483,5,task-xjip,repeat-7g8d#1->-repeat-38fk#1,26307347,BLIND,7766400,NaN,complete,NaN,63bdb71b374a15fbe31fe02d,computer,Desktop or Laptop,Windows 10,Chrome 108.0.0.0,1500x1000,1500x1000,Start of Day 2,SLS,90,A,Pass,End of Day 1,Pass,NaN,NaN,NaN,Pass,NaN,Pass,NaN,Start of Day 2,NaN,schedule_A,schedule_A,13,7,5,feedback_r,Zone7,timelimit_screen,2000.24099999999,NaN,NaN,,NaN,0,1,0,NaN,NaN,1,NaN,NaN,trial_right,redBox.png,yellowBox.png,redBox.png,al1_con.png,23,12,NaN,NaN,0.85,0.85,1,1,1,0,Volatile,Stable,2.361,0.992,0.5,1.975,expert
63,1673379180964,10/01/2023 19:33:00,1673379180710,0,10/01/2023 19:33:00,111483,5,task-xjip,repeat-7g8d#1->-repeat-38fk#1,26307347,BLIND,7766400,NaN,complete,NaN,63bdb71b374a15fbe31fe02d,computer,Desktop or Laptop,Windows 10,Chrome 108.0.0.0,1500x1000,1500x1000,Start of Day 2,SLS,90,A,Pass,End of Day 1,Pass,NaN,NaN,NaN,Pass,NaN,Pass,NaN,Start of Day 2,NaN,schedule_A,schedule_A,13,7,6,end,Zone1,timelimit_screen,150.029999999999,NaN,NaN,,NaN,0,1,0,NaN,NaN,1,NaN,NaN,trial_right,redBox.png,yellowBox.png,redBox.png,al1_con.png,23,12,NaN,NaN,0.85,0.85,1,1,1,0,Volatile,Stable,2.361,0.992,0.5,1.975,expert
64,1673379182521,10/01/2023 19:33:02,1673379182267,0,10/01/2023 19:33:02,111483,5,task-xjip,repeat-7g8d#1->-repeat-38fk#1,26307347,BLIND,7766400,NaN,complete,NaN,63bdb71b374a15fbe31fe02d,computer,Desktop or Laptop,Windows 10,Chrome 108.0.0.0,1500x1000,1500x1000,Start of Day 2,SLS,90,A,Pass,End of Day 1,Pass,NaN,NaN,NaN,Pass,NaN,Pass,NaN,Start of Day 2,NaN,schedule_A,schedule_A,14,8,1,Screen 1,Zone1,continue_button,1546,NaN,NaN,,NaN,0,1,0,NaN,NaN,NaN,NaN,NaN,trial_right,redBox.png,redBox.png,yellowBox.png,al1_con.png,24,13,NaN,NaN,0.85,0.85,1,0,0,1,Volatile,Stable,1.05,1.95,1.319,1.487,expert
65,1673379183502,10/01/2023 19:33:03,1673379183260,0,10/01/2023 19:33:03,111483,5,task-xjip,repeat-7g8d#1->-repeat-38fk#1,26307347,BLIND,7766400,NaN,complete,NaN,63bdb71b374a15fbe31fe02d,computer,Desktop or Laptop,Windows 10,Chrome 108.0.0.0,1500x1000,1500x1000,Start of Day 2,SLS,90,A,Pass,End of Day 1,Pass,NaN,NaN,NaN,Pass,NaN,Pass,NaN,Start of Day 2,NaN,schedule_A,schedule_A,14,8,2,individual,Zone4,timelimit_screen,999.690999999992,NaN,NaN,,NaN,0,1,0,NaN,NaN,1,NaN,NaN,trial_right,redBox.png,redBox.png,yellowBox.png,al1_con.png,24,13,NaN,NaN,0.85,0.85,1,0,0,1,Volatile,Stable,1.05,1.95,1.319,1.487,expert
66,1673379184992,10/01/2023 19:33:04,1673379184738,0,10/01/2023 19:33:04,111483,5,task-xjip,repeat-7g8d#1->-repeat-38fk#1,26307347,BLIND,7766400,NaN,complete,NaN,63bdb71b374a15fbe31fe02d,computer,Desktop or Laptop,Windows 10,Chrome 108.0.0.0,1500x1000,1500x1000,Start of Day 2,SLS,90,A,Pass,End of Day 1,Pass,NaN,NaN,NaN,Pass,NaN,Pass,NaN,Start of Day 2,NaN,schedule_A,schedule_A,14,8,3,offer,Zone3,response_button_image,1471.60000002384,NaN,NaN,yellowBox.png,1,0,1,0,NaN,NaN,NaN,NaN,NaN,trial_right,redBox.png,redBox.png,yellowBox.png,al1_con.png,24,13,NaN,NaN,0.85,0.85,1,0,0,1,Volatile,Stable,1.05,1.95,1.319,1.487,expert
67,1673379186980,10/01/2023 19:33:06,1673379186727,0,10/01/2023 19:33:06,111483,5,task-xjip,repeat-7g8d#1->-repeat-38fk#1,26307347,BLIND,7766400,NaN,complete,NaN,63bdb71b374a15fbe31fe02d,computer,Desktop or Laptop,Windows 10,Chrome 108.0.0.0,1500x1000,1500x1000,Start of Day 2,SLS,90,A,Pass,End of Day 1,Pass,NaN,NaN,NaN,Pass,NaN,Pass,NaN,Start of Day 2,NaN,schedule_A,schedule_A,14,8,5,feedback_r,Zone7,timelimit_screen,1999.91800000001,NaN,NaN,,NaN,0,1,0,NaN,NaN,1,NaN,NaN,trial_right,redBox.png,redBox.png,yellowBox.png,al1_con.png,24,13,NaN,NaN,0.85,0.85,1,0,0,1,Volatile,Stable,1.05,1.95,1.319,1.487,expert
68,1673379187133,10/01/2023 19:33:07,1673379186877,0,10/01/2023 19:33:06,111483,5,task-xjip,repeat-7g8d#1->-repeat-38fk#1,26307347,BLIND,7766400,NaN,complete,NaN,63bdb71b374a15fbe31fe02d,computer,Desktop or Laptop,Windows 10,Chrome 108.0.0.0,1500x1000,1500x1000,Start of Day 2,SLS,90,A,Pass,End of Day 1,Pass,NaN,NaN,NaN,Pass,NaN,Pass,NaN,Start of Day 2,NaN,schedule_A,schedule_A,14,8,6,end,Zone1,timelimit_screen,150.142000000007,NaN,NaN,,NaN,0,1,0,NaN,NaN,1,NaN,NaN,trial_right,redBox.png,redBox.png,yellowBox.png,al1_con.png,24,13,NaN,NaN,0.85,0.85,1,0,0,1,Volatile,Stable,1.05,1.95,1.319,1.487,expert
69,1673379189579,10/01/2023 19:33:09,1673379189325,0,10/01/2023 19:33:09,111483,5,task-xjip,repeat-7g8d#1->-repeat-38fk#1,26307347,BLIND,7766400,NaN,complete,NaN,63bdb71b374a15fbe31fe02d,computer,Desktop or Laptop,Windows 10,Chrome 108.0.0.0,1500x1000,1500x1000,Start of Day 2,SLS,90,A,Pass,End of Day 1,Pass,NaN,NaN,NaN,Pass,NaN,Pass,NaN,Start of Day 2,NaN,schedule_A,schedule_A,15,9,1,Screen 1,Zone1,continue_button,2436.5,NaN,NaN,,NaN,0,1,0,NaN,NaN,NaN,NaN,NaN,trial_right,redBox.png,yellowBox.png,redBox.png,al1_con.png,25,14,NaN,NaN,0.85,0.85,1,1,1,0,Volatile,Stable,3.395,0.84,0.803,1.252,expert
70,1673379190564,10/01/2023 19:33:10,1673379190310,0,10/01/2023 19:33:10,111483,5,task-xjip,repeat-7g8d#1->-repeat-38fk#1,26307347,BLIND,7766400,NaN,complete,NaN,63bdb71b374a15fbe31fe02d,computer,Desktop or Laptop,Windows 10,Chrome 108.0.0.0,1500x1000,1500x1000,Start of Day 2,SLS,90,A,Pass,End of Day 1,Pass,NaN,NaN,NaN,Pass,NaN,Pass,NaN,Start of Day 2,NaN,schedule_A,schedule_A,15,9,2,individual,Zone4,timelimit_screen,1000.01000000001,NaN,NaN,,NaN,0,1,0,NaN,NaN,1,NaN,NaN,trial_right,redBox.png,yellowBox.png,redBox.png,al1_con.png,25,14,NaN,NaN,0.85,0.85,1,1,1,0,Volatile,Stable,3.395,0.84,0.803,1.252,expert
71,1673379192589,10/01/2023 19:33:12,1673379192333,0,10/01/2023 19:33:12,111483,5,task-xjip,repeat-7g8d#1->-repeat-38fk#1,26307347,BLIND,7766400,NaN,complete,NaN,63bdb71b374a15fbe31fe02d,computer,Desktop or Laptop,Windows 10,Chrome 108.0.0.0,1500x1000,1500x1000,Start of Day 2,SLS,90,A,Pass,End of Day 1,Pass,NaN,NaN,NaN,Pass,NaN,Pass,NaN,Start of Day 2,NaN,schedule_A,schedule_A,15,9,3,offer,Zone2,response_button_image,2017.5,NaN,NaN,yellowBox.png,1,0,1,0,NaN,NaN,NaN,NaN,NaN,trial_right,redBox.png,yellowBox.png,redBox.png,al1_con.png,25,14,NaN,NaN,0.85,0.85,1,1,1,0,Volatile,Stable,3.395,0.84,0.803,1.252,expert
72,1673379194590,10/01/2023 19:33:14,1673379194327,0,10/01/2023 19:33:14,111483,5,task-xjip,repeat-7g8d#1->-repeat-38fk#1,26307347,BLIND,7766400,NaN,complete,NaN,63bdb71b374a15fbe31fe02d,computer,Desktop or Laptop,Windows 10,Chrome 108.0.0.0,1500x1000,1500x1000,Start of Day 2,SLS,90,A,Pass,End of Day 1,Pass,NaN,NaN,NaN,Pass,NaN,Pass,NaN,Start of Day 2,NaN,schedule_A,schedule_A,15,9,4,feedback_l,Zone7,timelimit_screen,2000.027,NaN,NaN,,NaN,0,1,0,NaN,NaN,1,NaN,NaN,trial_right,redBox.png,yellowBox.png,redBox.png,al1_con.png,25,14,NaN,NaN,0.85,0.85,1,1,1,0,Volatile,Stable,3.395,0.84,0.803,1.252,expert
73,1673379194728,10/01/2023 19:33:14,1673379194477,0,10/01/2023 19:33:14,111483,5,task-xjip,repeat-7g8d#1->-repeat-38fk#1,26307347,BLIND,7766400,NaN,complete,NaN,63bdb71b374a15fbe31fe02d,computer,Desktop or Laptop,Windows 10,Chrome 108.0.0.0,1500x1000,1500x1000,Start of Day 2,SLS,90,A,Pass,End of Day 1,Pass,NaN,NaN,NaN,Pass,NaN,Pass,NaN,Start of Day 2,NaN,schedule_A,schedule_A,15,9,6,end,Zone1,timelimit_screen,149.824000000008,NaN,NaN,,NaN,0,1,0,NaN,NaN,1,NaN,NaN,trial_right,redBox.png,yellowBox.png,redBox.png,al1_con.png,25,14,NaN,NaN,0.85,0.85,1,1,1,0,Volatile,Stable,3.395,0.84,0.803,1.252,expert
74,1673379195713,10/01/2023 19:33:15,1673379195456,0,10/01/2023 19:33:15,111483,5,task-xjip,repeat-7g8d#1->-repeat-38fk#1,26307347,BLIND,7766400,NaN,complete,NaN,63bdb71b374a15fbe31fe02d,computer,Desktop or Laptop,Windows 10,Chrome 108.0.0.0,1500x1000,1500x1000,Start of Day 2,SLS,90,A,Pass,End of Day 1,Pass,NaN,NaN,NaN,Pass,NaN,Pass,NaN,Start of Day 2,NaN,schedule_A,schedule_A,16,10,1,Screen 1,Zone1,continue_button,968.199999988079,NaN,NaN,,NaN,0,1,0,NaN,NaN,NaN,NaN,NaN,trial_right,yellowBox.png,redBox.png,yellowBox.png,al1_con.png,26,15,NaN,NaN,0.85,0.85,0,1,0,1,Volatile,Stable,2.689,1.067,1.697,2.731,expert
75,1673379196697,10/01/2023 19:33:16,1673379196444,0,10/01/2023 19:33:16,111483,5,task-xjip,repeat-7g8d#1->-repeat-38fk#1,26307347,BLIND,7766400,NaN,complete,NaN,63bdb71b374a15fbe31fe02d,computer,Desktop or Laptop,Windows 10,Chrome 108.0.0.0,1500x1000,1500x1000,Start of Day 2,SLS,90,A,Pass,End of Day 1,Pass,NaN,NaN,NaN,Pass,NaN,Pass,NaN,Start of Day 2,NaN,schedule_A,schedule_A,16,10,2,individual,Zone4,timelimit_screen,999.972999999998,NaN,NaN,,NaN,0,1,0,NaN,NaN,1,NaN,NaN,trial_right,yellowBox.png,redBox.png,yellowBox.png,al1_con.png,26,15,NaN,NaN,0.85,0.85,0,1,0,1,Volatile,Stable,2.689,1.067,1.697,2.731,expert
76,1673379198004,10/01/2023 19:33:18,1673379197749,0,10/01/2023 19:33:17,111483,5,task-xjip,repeat-7g8d#1->-repeat-38fk#1,26307347,BLIND,7766400,NaN,complete,NaN,63bdb71b374a15fbe31fe02d,computer,Desktop or Laptop,Windows 10,Chrome 108.0.0.0,1500x1000,1500x1000,Start of Day 2,SLS,90,A,Pass,End of Day 1,Pass,NaN,NaN,NaN,Pass,NaN,Pass,NaN,Start of Day 2,NaN,schedule_A,schedule_A,16,10,3,offer,Zone3,response_button_image,1299.19999998808,NaN,NaN,yellowBox.png,1,1,0,0,NaN,NaN,NaN,NaN,NaN,trial_right,yellowBox.png,redBox.png,yellowBox.png,al1_con.png,26,15,NaN,NaN,0.85,0.85,0,1,0,1,Volatile,Stable,2.689,1.067,1.697,2.731,expert
77,1673379199987,10/01/2023 19:33:19,1673379199744,0,10/01/2023 19:33:19,111483,5,task-xjip,repeat-7g8d#1->-repeat-38fk#1,26307347,BLIND,7766400,NaN,complete,NaN,63bdb71b374a15fbe31fe02d,computer,Desktop or Laptop,Windows 10,Chrome 108.0.0.0,1500x1000,1500x1000,Start of Day 2,SLS,90,A,Pass,End of Day 1,Pass,NaN,NaN,NaN,Pass,NaN,Pass,NaN,Start of Day 2,NaN,schedule_A,schedule_A,16,10,5,feedback_r,Zone7,timelimit_screen,1999.988,NaN,NaN,,NaN,0,1,0,NaN,NaN,1,NaN,NaN,trial_right,yellowBox.png,redBox.png,yellowBox.png,al1_con.png,26,15,NaN,NaN,0.85,0.85,0,1,0,1,Volatile,Stable,2.689,1.067,1.697,2.731,expert
78,1673379200146,10/01/2023 19:33:20,1673379199893,0,10/01/2023 19:33:19,111483,5,task-xjip,repeat-7g8d#1->-repeat-38fk#1,26307347,BLIND,7766400,NaN,complete,NaN,63bdb71b374a15fbe31fe02d,computer,Desktop or Laptop,Windows 10,Chrome 108.0.0.0,1500x1000,1500x1000,Start of Day 2,SLS,90,A,Pass,End of Day 1,Pass,NaN,NaN,NaN,Pass,NaN,Pass,NaN,Start of Day 2,NaN,schedule_A,schedule_A,16,10,6,end,Zone1,timelimit_screen,149.875,NaN,NaN,,NaN,0,1,0,NaN,NaN,1,NaN,NaN,trial_right,yellowBox.png,redBox.png,yellowBox.png,al1_con.png,26,15,NaN,NaN,0.85,0.85,0,1,0,1,Volatile,Stable,2.689,1.067,1.697,2.731,expert
79,1673379204102,10/01/2023 19:33:24,1673379203784,0,10/01/2023 19:33:23,111483,5,task-xjip,repeat-7g8d#1->-repeat-38fk#1,26307347,BLIND,7766400,NaN,complete,NaN,63bdb71b374a15fbe31fe02d,computer,Desktop or Laptop,Windows 10,Chrome 108.0.0.0,1500x1000,1500x1000,Start of Day 2,SLS,90,A,Pass,End of Day 1,Pass,NaN,NaN,NaN,Pass,NaN,Pass,NaN,Start of Day 2,NaN,schedule_A,schedule_A,17,6,1,Screen 1,Zone1,continue_button,3879.80000001192,NaN,NaN,,NaN,0,1,0,NaN,NaN,NaN,NaN,NaN,trial_left,yellowBox.png,yellowBox.png,redBox.png,al1_con.png,27,16,NaN,NaN,0.15,0.85,0,1,0,0,Volatile,Stable,1.378,0.689,0.878,2.076,expert
80,1673379205022,10/01/2023 19:33:25,1673379204777,0,10/01/2023 19:33:24,111483,5,task-xjip,repeat-7g8d#1->-repeat-38fk#1,26307347,BLIND,7766400,NaN,complete,NaN,63bdb71b374a15fbe31fe02d,computer,Desktop or Laptop,Windows 10,Chrome 108.0.0.0,1500x1000,1500x1000,Start of Day 2,SLS,90,A,Pass,End of Day 1,Pass,NaN,NaN,NaN,Pass,NaN,Pass,NaN,Start of Day 2,NaN,schedule_A,schedule_A,17,6,2,individual,Zone4,timelimit_screen,1000.10299999999,NaN,NaN,,NaN,0,1,0,NaN,NaN,1,NaN,NaN,trial_left,yellowBox.png,yellowBox.png,redBox.png,al1_con.png,27,16,NaN,NaN,0.15,0.85,0,1,0,0,Volatile,Stable,1.378,0.689,0.878,2.076,expert
81,1673379206385,10/01/2023 19:33:26,1673379206142,0,10/01/2023 19:33:26,111483,5,task-xjip,repeat-7g8d#1->-repeat-38fk#1,26307347,BLIND,7766400,NaN,complete,NaN,63bdb71b374a15fbe31fe02d,computer,Desktop or Laptop,Windows 10,Chrome 108.0.0.0,1500x1000,1500x1000,Start of Day 2,SLS,90,A,Pass,End of Day 1,Pass,NaN,NaN,NaN,Pass,NaN,Pass,NaN,Start of Day 2,NaN,schedule_A,schedule_A,17,6,3,offer,Zone2,response_button_image,1358.80000001192,NaN,NaN,yellowBox.png,1,1,0,0,NaN,NaN,NaN,NaN,NaN,trial_left,yellowBox.png,yellowBox.png,redBox.png,al1_con.png,27,16,NaN,NaN,0.15,0.85,0,1,0,0,Volatile,Stable,1.378,0.689,0.878,2.076,expert
82,1673379208379,10/01/2023 19:33:28,1673379208128,0,10/01/2023 19:33:28,111483,5,task-xjip,repeat-7g8d#1->-repeat-38fk#1,26307347,BLIND,7766400,NaN,complete,NaN,63bdb71b374a15fbe31fe02d,computer,Desktop or Laptop,Windows 10,Chrome 108.0.0.0,1500x1000,1500x1000,Start of Day 2,SLS,90,A,Pass,End of Day 1,Pass,NaN,NaN,NaN,Pass,NaN,Pass,NaN,Start of Day 2,NaN,schedule_A,schedule_A,17,6,4,feedback_l,Zone7,timelimit_screen,2000.159,NaN,NaN,,NaN,0,1,0,NaN,NaN,1,NaN,NaN,trial_left,yellowBox.png,yellowBox.png,redBox.png,al1_con.png,27,16,NaN,NaN,0.15,0.85,0,1,0,0,Volatile,Stable,1.378,0.689,0.878,2.076,expert
83,1673379208539,10/01/2023 19:33:28,1673379208277,0,10/01/2023 19:33:28,111483,5,task-xjip,repeat-7g8d#1->-repeat-38fk#1,26307347,BLIND,7766400,NaN,complete,NaN,63bdb71b374a15fbe31fe02d,computer,Desktop or Laptop,Windows 10,Chrome 108.0.0.0,1500x1000,1500x1000,Start of Day 2,SLS,90,A,Pass,End of Day 1,Pass,NaN,NaN,NaN,Pass,NaN,Pass,NaN,Start of Day 2,NaN,schedule_A,schedule_A,17,6,6,end,Zone1,timelimit_screen,150.123999999996,NaN,NaN,,NaN,0,1,0,NaN,NaN,1,NaN,NaN,trial_left,yellowBox.png,yellowBox.png,redBox.png,al1_con.png,27,16,NaN,NaN,0.15,0.85,0,1,0,0,Volatile,Stable,1.378,0.689,0.878,2.076,expert
84,1673379209726,10/01/2023 19:33:29,1673379209479,0,10/01/2023 19:33:29,111483,5,task-xjip,repeat-7g8d#1->-repeat-38fk#1,26307347,BLIND,7766400,NaN,complete,NaN,63bdb71b374a15fbe31fe02d,computer,Desktop or Laptop,Windows 10,Chrome 108.0.0.0,1500x1000,1500x1000,Start of Day 2,SLS,90,A,Pass,End of Day 1,Pass,NaN,NaN,NaN,Pass,NaN,Pass,NaN,Start of Day 2,NaN,schedule_A,schedule_A,18,11,1,Screen 1,Zone1,continue_button,1191,NaN,NaN,,NaN,0,1,0,NaN,NaN,NaN,NaN,NaN,trial_right,yellowBox.png,redBox.png,yellowBox.png,al1_con.png,28,17,NaN,NaN,0.15,0.85,0,1,0,1,Volatile,Stable,2.714,0.739,1.975,1.134,expert
85,1673379210723,10/01/2023 19:33:30,1673379210477,0,10/01/2023 19:33:30,111483,5,task-xjip,repeat-7g8d#1->-repeat-38fk#1,26307347,BLIND,7766400,NaN,complete,NaN,63bdb71b374a15fbe31fe02d,computer,Desktop or Laptop,Windows 10,Chrome 108.0.0.0,1500x1000,1500x1000,Start of Day 2,SLS,90,A,Pass,End of Day 1,Pass,NaN,NaN,NaN,Pass,NaN,Pass,NaN,Start of Day 2,NaN,schedule_A,schedule_A,18,11,2,individual,Zone4,timelimit_screen,999.766000000003,NaN,NaN,,NaN,0,1,0,NaN,NaN,1,NaN,NaN,trial_right,yellowBox.png,redBox.png,yellowBox.png,al1_con.png,28,17,NaN,NaN,0.15,0.85,0,1,0,1,Volatile,Stable,2.714,0.739,1.975,1.134,expert
86,1673379211838,10/01/2023 19:33:31,1673379211586,0,10/01/2023 19:33:31,111483,5,task-xjip,repeat-7g8d#1->-repeat-38fk#1,26307347,BLIND,7766400,NaN,complete,NaN,63bdb71b374a15fbe31fe02d,computer,Desktop or Laptop,Windows 10,Chrome 108.0.0.0,1500x1000,1500x1000,Start of Day 2,SLS,90,A,Pass,End of Day 1,Pass,NaN,NaN,NaN,Pass,NaN,Pass,NaN,Start of Day 2,NaN,schedule_A,schedule_A,18,11,3,offer,Zone3,response_button_image,1103.39999997616,NaN,NaN,yellowBox.png,1,1,0,0,NaN,NaN,NaN,NaN,NaN,trial_right,yellowBox.png,redBox.png,yellowBox.png,al1_con.png,28,17,NaN,NaN,0.15,0.85,0,1,0,1,Volatile,Stable,2.714,0.739,1.975,1.134,expert
87,1673379213822,10/01/2023 19:33:33,1673379213577,0,10/01/2023 19:33:33,111483,5,task-xjip,repeat-7g8d#1->-repeat-38fk#1,26307347,BLIND,7766400,NaN,complete,NaN,63bdb71b374a15fbe31fe02d,computer,Desktop or Laptop,Windows 10,Chrome 108.0.0.0,1500x1000,1500x1000,Start of Day 2,SLS,90,A,Pass,End of Day 1,Pass,NaN,NaN,NaN,Pass,NaN,Pass,NaN,Start of Day 2,NaN,schedule_A,schedule_A,18,11,5,feedback_r,Zone7,timelimit_screen,1999.98400000001,NaN,NaN,,NaN,0,1,0,NaN,NaN,1,NaN,NaN,trial_right,yellowBox.png,redBox.png,yellowBox.png,al1_con.png,28,17,NaN,NaN,0.15,0.85,0,1,0,1,Volatile,Stable,2.714,0.739,1.975,1.134,expert
88,1673379213991,10/01/2023 19:33:33,1673379213727,0,10/01/2023 19:33:33,111483,5,task-xjip,repeat-7g8d#1->-repeat-38fk#1,26307347,BLIND,7766400,NaN,complete,NaN,63bdb71b374a15fbe31fe02d,computer,Desktop or Laptop,Windows 10,Chrome 108.0.0.0,1500x1000,1500x1000,Start of Day 2,SLS,90,A,Pass,End of Day 1,Pass,NaN,NaN,NaN,Pass,NaN,Pass,NaN,Start of Day 2,NaN,schedule_A,schedule_A,18,11,6,end,Zone1,timelimit_screen,150.031999999992,NaN,NaN,,NaN,0,1,0,NaN,NaN,1,NaN,NaN,trial_right,yellowBox.png,redBox.png,yellowBox.png,al1_con.png,28,17,NaN,NaN,0.15,0.85,0,1,0,1,Volatile,Stable,2.714,0.739,1.975,1.134,expert
89,1673379215113,10/01/2023 19:33:35,1673379214865,0,10/01/2023 19:33:34,111483,5,task-xjip,repeat-7g8d#1->-repeat-38fk#1,26307347,BLIND,7766400,NaN,complete,NaN,63bdb71b374a15fbe31fe02d,computer,Desktop or Laptop,Windows 10,Chrome 108.0.0.0,1500x1000,1500x1000,Start of Day 2,SLS,90,A,Pass,End of Day 1,Pass,NaN,NaN,NaN,Pass,NaN,Pass,NaN,Start of Day 2,NaN,schedule_A,schedule_A,19,7,1,Screen 1,Zone1,continue_button,1126.60000002384,NaN,NaN,,NaN,0,1,0,NaN,NaN,NaN,NaN,NaN,trial_left,yellowBox.png,yellowBox.png,redBox.png,al1_con.png,29,18,NaN,NaN,0.15,0.85,0,1,0,0,Volatile,Stable,3.874,0.676,1.496,1.639,expert
90,1673379216118,10/01/2023 19:33:36,1673379215861,0,10/01/2023 19:33:35,111483,5,task-xjip,repeat-7g8d#1->-repeat-38fk#1,26307347,BLIND,7766400,NaN,complete,NaN,63bdb71b374a15fbe31fe02d,computer,Desktop or Laptop,Windows 10,Chrome 108.0.0.0,1500x1000,1500x1000,Start of Day 2,SLS,90,A,Pass,End of Day 1,Pass,NaN,NaN,NaN,Pass,NaN,Pass,NaN,Start of Day 2,NaN,schedule_A,schedule_A,19,7,2,individual,Zone4,timelimit_screen,1000.317,NaN,NaN,,NaN,0,1,0,NaN,NaN,1,NaN,NaN,trial_left,yellowBox.png,yellowBox.png,redBox.png,al1_con.png,29,18,NaN,NaN,0.15,0.85,0,1,0,0,Volatile,Stable,3.874,0.676,1.496,1.639,expert
91,1673379217301,10/01/2023 19:33:37,1673379217047,0,10/01/2023 19:33:37,111483,5,task-xjip,repeat-7g8d#1->-repeat-38fk#1,26307347,BLIND,7766400,NaN,complete,NaN,63bdb71b374a15fbe31fe02d,computer,Desktop or Laptop,Windows 10,Chrome 108.0.0.0,1500x1000,1500x1000,Start of Day 2,SLS,90,A,Pass,End of Day 1,Pass,NaN,NaN,NaN,Pass,NaN,Pass,NaN,Start of Day 2,NaN,schedule_A,schedule_A,19,7,3,offer,Zone2,response_button_image,1181.09999996424,NaN,NaN,yellowBox.png,1,1,0,0,NaN,NaN,NaN,NaN,NaN,trial_left,yellowBox.png,yellowBox.png,redBox.png,al1_con.png,29,18,NaN,NaN,0.15,0.85,0,1,0,0,Volatile,Stable,3.874,0.676,1.496,1.639,expert
92,1673379219300,10/01/2023 19:33:39,1673379219044,0,10/01/2023 19:33:39,111483,5,task-xjip,repeat-7g8d#1->-repeat-38fk#1,26307347,BLIND,7766400,NaN,complete,NaN,63bdb71b374a15fbe31fe02d,computer,Desktop or Laptop,Windows 10,Chrome 108.0.0.0,1500x1000,1500x1000,Start of Day 2,SLS,90,A,Pass,End of Day 1,Pass,NaN,NaN,NaN,Pass,NaN,Pass,NaN,Start of Day 2,NaN,schedule_A,schedule_A,19,7,4,feedback_l,Zone7,timelimit_screen,1999.838,NaN,NaN,,NaN,0,1,0,NaN,NaN,1,NaN,NaN,trial_left,yellowBox.png,yellowBox.png,redBox.png,al1_con.png,29,18,NaN,NaN,0.15,0.85,0,1,0,0,Volatile,Stable,3.874,0.676,1.496,1.639,expert
93,1673379219448,10/01/2023 19:33:39,1673379219194,0,10/01/2023 19:33:39,111483,5,task-xjip,repeat-7g8d#1->-repeat-38fk#1,26307347,BLIND,7766400,NaN,complete,NaN,63bdb71b374a15fbe31fe02d,computer,Desktop or Laptop,Windows 10,Chrome 108.0.0.0,1500x1000,1500x1000,Start of Day 2,SLS,90,A,Pass,End of Day 1,Pass,NaN,NaN,NaN,Pass,NaN,Pass,NaN,Start of Day 2,NaN,schedule_A,schedule_A,19,7,6,end,Zone1,timelimit_screen,150,NaN,NaN,,NaN,0,1,0,NaN,NaN,1,NaN,NaN,trial_left,yellowBox.png,yellowBox.png,redBox.png,al1_con.png,29,18,NaN,NaN,0.15,0.85,0,1,0,0,Volatile,Stable,3.874,0.676,1.496,1.639,expert
94,1673379220913,10/01/2023 19:33:40,1673379220664,0,10/01/2023 19:33:40,111483,5,task-xjip,repeat-7g8d#1->-repeat-38fk#1,26307347,BLIND,7766400,NaN,complete,NaN,63bdb71b374a15fbe31fe02d,computer,Desktop or Laptop,Windows 10,Chrome 108.0.0.0,1500x1000,1500x1000,Start of Day 2,SLS,90,A,Pass,End of Day 1,Pass,NaN,NaN,NaN,Pass,NaN,Pass,NaN,Start of Day 2,NaN,schedule_A,schedule_A,20,12,1,Screen 1,Zone1,continue_button,1459.10000002384,NaN,NaN,,NaN,0,1,0,NaN,NaN,NaN,NaN,NaN,trial_right,yellowBox.png,yellowBox.png,redBox.png,al1_con.png,30,19,NaN,NaN,0.15,0.85,0,0,1,0,Volatile,Stable,1.252,1.193,0.853,2.681,expert
95,1673379221919,10/01/2023 19:33:41,1673379221661,0,10/01/2023 19:33:41,111483,5,task-xjip,repeat-7g8d#1->-repeat-38fk#1,26307347,BLIND,7766400,NaN,complete,NaN,63bdb71b374a15fbe31fe02d,computer,Desktop or Laptop,Windows 10,Chrome 108.0.0.0,1500x1000,1500x1000,Start of Day 2,SLS,90,A,Pass,End of Day 1,Pass,NaN,NaN,NaN,Pass,NaN,Pass,NaN,Start of Day 2,NaN,schedule_A,schedule_A,20,12,2,individual,Zone4,timelimit_screen,999.921000000002,NaN,NaN,,NaN,0,1,0,NaN,NaN,1,NaN,NaN,trial_right,yellowBox.png,yellowBox.png,redBox.png,al1_con.png,30,19,NaN,NaN,0.15,0.85,0,0,1,0,Volatile,Stable,1.252,1.193,0.853,2.681,expert
96,1673379223359,10/01/2023 19:33:43,1673379223108,0,10/01/2023 19:33:43,111483,5,task-xjip,repeat-7g8d#1->-repeat-38fk#1,26307347,BLIND,7766400,NaN,complete,NaN,63bdb71b374a15fbe31fe02d,computer,Desktop or Laptop,Windows 10,Chrome 108.0.0.0,1500x1000,1500x1000,Start of Day 2,SLS,90,A,Pass,End of Day 1,Pass,NaN,NaN,NaN,Pass,NaN,Pass,NaN,Start of Day 2,NaN,schedule_A,schedule_A,20,12,3,offer,Zone3,response_button_image,1441.60000002384,NaN,NaN,redBox.png,1,0,1,0,NaN,NaN,NaN,NaN,NaN,trial_right,yellowBox.png,yellowBox.png,redBox.png,al1_con.png,30,19,NaN,NaN,0.15,0.85,0,0,1,0,Volatile,Stable,1.252,1.193,0.853,2.681,expert
97,1673379225348,10/01/2023 19:33:45,1673379225094,0,10/01/2023 19:33:45,111483,5,task-xjip,repeat-7g8d#1->-repeat-38fk#1,26307347,BLIND,7766400,NaN,complete,NaN,63bdb71b374a15fbe31fe02d,computer,Desktop or Laptop,Windows 10,Chrome 108.0.0.0,1500x1000,1500x1000,Start of Day 2,SLS,90,A,Pass,End of Day 1,Pass,NaN,NaN,NaN,Pass,NaN,Pass,NaN,Start of Day 2,NaN,schedule_A,schedule_A,20,12,5,feedback_r,Zone7,timelimit_screen,1999.96299999999,NaN,NaN,,NaN,0,1,0,NaN,NaN,1,NaN,NaN,trial_right,yellowBox.png,yellowBox.png,redBox.png,al1_con.png,30,19,NaN,NaN,0.15,0.85,0,0,1,0,Volatile,Stable,1.252,1.193,0.853,2.681,expert
98,1673379225497,10/01/2023 19:33:45,1673379225244,0,10/01/2023 19:33:45,111483,5,task-xjip,repeat-7g8d#1->-repeat-38fk#1,26307347,BLIND,7766400,NaN,complete,NaN,63bdb71b374a15fbe31fe02d,computer,Desktop or Laptop,Windows 10,Chrome 108.0.0.0,1500x1000,1500x1000,Start of Day 2,SLS,90,A,Pass,End of Day 1,Pass,NaN,NaN,NaN,Pass,NaN,Pass,NaN,Start of Day 2,NaN,schedule_A,schedule_A,20,12,6,end,Zone1,timelimit_screen,150.328999999998,NaN,NaN,,NaN,0,1,0,NaN,NaN,1,NaN,NaN,trial_right,yellowBox.png,yellowBox.png,redBox.png,al1_con.png,30,19,NaN,NaN,0.15,0.85,0,0,1,0,Volatile,Stable,1.252,1.193,0.853,2.681,expert
99,1673379226473,10/01/2023 19:33:46,1673379226224,0,10/01/2023 19:33:46,111483,5,task-xjip,repeat-7g8d#1->-repeat-38fk#1,26307347,BLIND,7766400,NaN,complete,NaN,63bdb71b374a15fbe31fe02d,computer,Desktop or Laptop,Windows 10,Chrome 108.0.0.0,1500x1000,1500x1000,Start of Day 2,SLS,90,A,Pass,End of Day 1,Pass,NaN,NaN,NaN,Pass,NaN,Pass,NaN,Start of Day 2,NaN,schedule_A,schedule_A,21,13,1,Screen 1,Zone1,continue_button,968.299999952316,NaN,NaN,,NaN,0,1,0,NaN,NaN,NaN,NaN,NaN,trial_right,yellowBox.png,redBox.png,yellowBox.png,al1_con.png,41,20,NaN,NaN,0.15,0.85,0,1,0,1,Volatile,Stable,3.521,1.723,1.37,1.655,expert
100,1673379227458,10/01/2023 19:33:47,1673379227211,0,10/01/2023 19:33:47,111483,5,task-xjip,repeat-7g8d#1->-repeat-38fk#1,26307347,BLIND,7766400,NaN,complete,NaN,63bdb71b374a15fbe31fe02d,computer,Desktop or Laptop,Windows 10,Chrome 108.0.0.0,1500x1000,1500x1000,Start of Day 2,SLS,90,A,Pass,End of Day 1,Pass,NaN,NaN,NaN,Pass,NaN,Pass,NaN,Start of Day 2,NaN,schedule_A,schedule_A,21,13,2,individual,Zone4,timelimit_screen,1000.038,NaN,NaN,,NaN,0,1,0,NaN,NaN,1,NaN,NaN,trial_right,yellowBox.png,redBox.png,yellowBox.png,al1_con.png,41,20,NaN,NaN,0.15,0.85,0,1,0,1,Volatile,Stable,3.521,1.723,1.37,1.655,expert
101,1673379228595,10/01/2023 19:33:48,1673379228346,0,10/01/2023 19:33:48,111483,5,task-xjip,repeat-7g8d#1->-repeat-38fk#1,26307347,BLIND,7766400,NaN,complete,NaN,63bdb71b374a15fbe31fe02d,computer,Desktop or Laptop,Windows 10,Chrome 108.0.0.0,1500x1000,1500x1000,Start of Day 2,SLS,90,A,Pass,End of Day 1,Pass,NaN,NaN,NaN,Pass,NaN,Pass,NaN,Start of Day 2,NaN,schedule_A,schedule_A,21,13,3,offer,Zone3,response_button_image,1130,NaN,NaN,yellowBox.png,1,1,0,0,NaN,NaN,NaN,NaN,NaN,trial_right,yellowBox.png,redBox.png,yellowBox.png,al1_con.png,41,20,NaN,NaN,0.15,0.85,0,1,0,1,Volatile,Stable,3.521,1.723,1.37,1.655,expert
102,1673379230587,10/01/2023 19:33:50,1673379230345,0,10/01/2023 19:33:50,111483,5,task-xjip,repeat-7g8d#1->-repeat-38fk#1,26307347,BLIND,7766400,NaN,complete,NaN,63bdb71b374a15fbe31fe02d,computer,Desktop or Laptop,Windows 10,Chrome 108.0.0.0,1500x1000,1500x1000,Start of Day 2,SLS,90,A,Pass,End of Day 1,Pass,NaN,NaN,NaN,Pass,NaN,Pass,NaN,Start of Day 2,NaN,schedule_A,schedule_A,21,13,5,feedback_r,Zone7,timelimit_screen,2000.09600000001,NaN,NaN,,NaN,0,1,0,NaN,NaN,1,NaN,NaN,trial_right,yellowBox.png,redBox.png,yellowBox.png,al1_con.png,41,20,NaN,NaN,0.15,0.85,0,1,0,1,Volatile,Stable,3.521,1.723,1.37,1.655,expert
103,1673379230741,10/01/2023 19:33:50,1673379230494,0,10/01/2023 19:33:50,111483,5,task-xjip,repeat-7g8d#1->-repeat-38fk#1,26307347,BLIND,7766400,NaN,complete,NaN,63bdb71b374a15fbe31fe02d,computer,Desktop or Laptop,Windows 10,Chrome 108.0.0.0,1500x1000,1500x1000,Start of Day 2,SLS,90,A,Pass,End of Day 1,Pass,NaN,NaN,NaN,Pass,NaN,Pass,NaN,Start of Day 2,NaN,schedule_A,schedule_A,21,13,6,end,Zone1,timelimit_screen,149.806000000011,NaN,NaN,,NaN,0,1,0,NaN,NaN,1,NaN,NaN,trial_right,yellowBox.png,redBox.png,yellowBox.png,al1_con.png,41,20,NaN,NaN,0.15,0.85,0,1,0,1,Volatile,Stable,3.521,1.723,1.37,1.655,expert
104,1673379231652,10/01/2023 19:33:51,1673379231395,0,10/01/2023 19:33:51,111483,5,task-xjip,repeat-7g8d#1->-repeat-38fk#1,26307347,BLIND,7766400,NaN,complete,NaN,63bdb71b374a15fbe31fe02d,computer,Desktop or Laptop,Windows 10,Chrome 108.0.0.0,1500x1000,1500x1000,Start of Day 2,SLS,90,A,Pass,End of Day 1,Pass,NaN,NaN,NaN,Pass,NaN,Pass,NaN,Start of Day 2,NaN,schedule_A,schedule_A,22,14,1,Screen 1,Zone1,continue_button,890.199999988079,NaN,NaN,,NaN,0,1,0,NaN,NaN,NaN,NaN,NaN,trial_right,redBox.png,yellowBox.png,redBox.png,al1_con.png,42,21,NaN,NaN,0.85,0.85,1,1,1,0,Stable,Stable,2.336,0.651,1.685,2.882,expert
105,1673379232654,10/01/2023 19:33:52,1673379232395,0,10/01/2023 19:33:52,111483,5,task-xjip,repeat-7g8d#1->-repeat-38fk#1,26307347,BLIND,7766400,NaN,complete,NaN,63bdb71b374a15fbe31fe02d,computer,Desktop or Laptop,Windows 10,Chrome 108.0.0.0,1500x1000,1500x1000,Start of Day 2,SLS,90,A,Pass,End of Day 1,Pass,NaN,NaN,NaN,Pass,NaN,Pass,NaN,Start of Day 2,NaN,schedule_A,schedule_A,22,14,2,individual,Zone4,timelimit_screen,1000.11600000001,NaN,NaN,,NaN,0,1,0,NaN,NaN,1,NaN,NaN,trial_right,redBox.png,yellowBox.png,redBox.png,al1_con.png,42,21,NaN,NaN,0.85,0.85,1,1,1,0,Stable,Stable,2.336,0.651,1.685,2.882,expert
106,1673379246680,10/01/2023 19:34:06,1673379246439,0,10/01/2023 19:34:06,111483,5,task-xjip,repeat-7g8d#1->-repeat-38fk#1,26307347,BLIND,7766400,NaN,complete,NaN,63bdb71b374a15fbe31fe02d,computer,Desktop or Laptop,Windows 10,Chrome 108.0.0.0,1500x1000,1500x1000,Start of Day 2,SLS,90,A,Pass,End of Day 1,Pass,NaN,NaN,NaN,Pass,NaN,Pass,NaN,Start of Day 2,NaN,schedule_A,schedule_A,22,14,3,offer,Zone3,response_button_image,14038.2999999523,NaN,NaN,redBox.png,1,1,0,0,NaN,NaN,NaN,NaN,NaN,trial_right,redBox.png,yellowBox.png,redBox.png,al1_con.png,42,21,NaN,NaN,0.85,0.85,1,1,1,0,Stable,Stable,2.336,0.651,1.685,2.882,expert
107,1673379248673,10/01/2023 19:34:08,1673379248428,0,10/01/2023 19:34:08,111483,5,task-xjip,repeat-7g8d#1->-repeat-38fk#1,26307347,BLIND,7766400,NaN,complete,NaN,63bdb71b374a15fbe31fe02d,computer,Desktop or Laptop,Windows 10,Chrome 108.0.0.0,1500x1000,1500x1000,Start of Day 2,SLS,90,A,Pass,End of Day 1,Pass,NaN,NaN,NaN,Pass,NaN,Pass,NaN,Start of Day 2,NaN,schedule_A,schedule_A,22,14,5,feedback_r,Zone7,timelimit_screen,1999.86300000001,NaN,NaN,,NaN,0,1,0,NaN,NaN,1,NaN,NaN,trial_right,redBox.png,yellowBox.png,redBox.png,al1_con.png,42,21,NaN,NaN,0.85,0.85,1,1,1,0,Stable,Stable,2.336,0.651,1.685,2.882,expert
108,1673379248820,10/01/2023 19:34:08,1673379248578,0,10/01/2023 19:34:08,111483,5,task-xjip,repeat-7g8d#1->-repeat-38fk#1,26307347,BLIND,7766400,NaN,complete,NaN,63bdb71b374a15fbe31fe02d,computer,Desktop or Laptop,Windows 10,Chrome 108.0.0.0,1500x1000,1500x1000,Start of Day 2,SLS,90,A,Pass,End of Day 1,Pass,NaN,NaN,NaN,Pass,NaN,Pass,NaN,Start of Day 2,NaN,schedule_A,schedule_A,22,14,6,end,Zone1,timelimit_screen,150.496000000014,NaN,NaN,,NaN,0,1,0,NaN,NaN,1,NaN,NaN,trial_right,redBox.png,yellowBox.png,redBox.png,al1_con.png,42,21,NaN,NaN,0.85,0.85,1,1,1,0,Stable,Stable,2.336,0.651,1.685,2.882,expert
109,1673379250061,10/01/2023 19:34:10,1673379249805,0,10/01/2023 19:34:09,111483,5,task-xjip,repeat-7g8d#1->-repeat-38fk#1,26307347,BLIND,7766400,NaN,complete,NaN,63bdb71b374a15fbe31fe02d,computer,Desktop or Laptop,Windows 10,Chrome 108.0.0.0,1500x1000,1500x1000,Start of Day 2,SLS,90,A,Pass,End of Day 1,Pass,NaN,NaN,NaN,Pass,NaN,Pass,NaN,Start of Day 2,NaN,schedule_A,schedule_A,23,15,1,Screen 1,Zone1,continue_button,1215.40000003576,NaN,NaN,,NaN,0,1,0,NaN,NaN,NaN,NaN,NaN,trial_right,redBox.png,yellowBox.png,redBox.png,al1_con.png,43,22,NaN,NaN,0.85,0.85,1,1,1,0,Stable,Stable,3.622,1.319,1.193,1.067,expert
110,1673379251044,10/01/2023 19:34:11,1673379250795,0,10/01/2023 19:34:10,111483,5,task-xjip,repeat-7g8d#1->-repeat-38fk#1,26307347,BLIND,7766400,NaN,complete,NaN,63bdb71b374a15fbe31fe02d,computer,Desktop or Laptop,Windows 10,Chrome 108.0.0.0,1500x1000,1500x1000,Start of Day 2,SLS,90,A,Pass,End of Day 1,Pass,NaN,NaN,NaN,Pass,NaN,Pass,NaN,Start of Day 2,NaN,schedule_A,schedule_A,23,15,2,individual,Zone4,timelimit_screen,1000.00999999998,NaN,NaN,,NaN,0,1,0,NaN,NaN,1,NaN,NaN,trial_right,redBox.png,yellowBox.png,redBox.png,al1_con.png,43,22,NaN,NaN,0.85,0.85,1,1,1,0,Stable,Stable,3.622,1.319,1.193,1.067,expert
111,1673379260142,10/01/2023 19:34:20,1673379259895,0,10/01/2023 19:34:19,111483,5,task-xjip,repeat-7g8d#1->-repeat-38fk#1,26307347,BLIND,7766400,NaN,complete,NaN,63bdb71b374a15fbe31fe02d,computer,Desktop or Laptop,Windows 10,Chrome 108.0.0.0,1500x1000,1500x1000,Start of Day 2,SLS,90,A,Pass,End of Day 1,Pass,NaN,NaN,NaN,Pass,NaN,Pass,NaN,Start of Day 2,NaN,schedule_A,schedule_A,23,15,3,offer,Zone3,response_button_image,9094.20000004768,NaN,NaN,redBox.png,1,1,0,0,NaN,NaN,NaN,NaN,NaN,trial_right,redBox.png,yellowBox.png,redBox.png,al1_con.png,43,22,NaN,NaN,0.85,0.85,1,1,1,0,Stable,Stable,3.622,1.319,1.193,1.067,expert
112,1673379262125,10/01/2023 19:34:22,1673379261878,0,10/01/2023 19:34:21,111483,5,task-xjip,repeat-7g8d#1->-repeat-38fk#1,26307347,BLIND,7766400,NaN,complete,NaN,63bdb71b374a15fbe31fe02d,computer,Desktop or Laptop,Windows 10,Chrome 108.0.0.0,1500x1000,1500x1000,Start of Day 2,SLS,90,A,Pass,End of Day 1,Pass,NaN,NaN,NaN,Pass,NaN,Pass,NaN,Start of Day 2,NaN,schedule_A,schedule_A,23,15,5,feedback_r,Zone7,timelimit_screen,1999.82399999999,NaN,NaN,,NaN,0,1,0,NaN,NaN,1,NaN,NaN,trial_right,redBox.png,yellowBox.png,redBox.png,al1_con.png,43,22,NaN,NaN,0.85,0.85,1,1,1,0,Stable,Stable,3.622,1.319,1.193,1.067,expert
113,1673379262285,10/01/2023 19:34:22,1673379262028,0,10/01/2023 19:34:22,111483,5,task-xjip,repeat-7g8d#1->-repeat-38fk#1,26307347,BLIND,7766400,NaN,complete,NaN,63bdb71b374a15fbe31fe02d,computer,Desktop or Laptop,Windows 10,Chrome 108.0.0.0,1500x1000,1500x1000,Start of Day 2,SLS,90,A,Pass,End of Day 1,Pass,NaN,NaN,NaN,Pass,NaN,Pass,NaN,Start of Day 2,NaN,schedule_A,schedule_A,23,15,6,end,Zone1,timelimit_screen,150.076000000001,NaN,NaN,,NaN,0,1,0,NaN,NaN,1,NaN,NaN,trial_right,redBox.png,yellowBox.png,redBox.png,al1_con.png,43,22,NaN,NaN,0.85,0.85,1,1,1,0,Stable,Stable,3.622,1.319,1.193,1.067,expert
114,1673379263517,10/01/2023 19:34:23,1673379263272,0,10/01/2023 19:34:23,111483,5,task-xjip,repeat-7g8d#1->-repeat-38fk#1,26307347,BLIND,7766400,NaN,complete,NaN,63bdb71b374a15fbe31fe02d,computer,Desktop or Laptop,Windows 10,Chrome 108.0.0.0,1500x1000,1500x1000,Start of Day 2,SLS,90,A,Pass,End of Day 1,Pass,NaN,NaN,NaN,Pass,NaN,Pass,NaN,Start of Day 2,NaN,schedule_A,schedule_A,24,8,1,Screen 1,Zone1,continue_button,1234,NaN,NaN,,NaN,0,1,0,NaN,NaN,NaN,NaN,NaN,trial_left,redBox.png,redBox.png,yellowBox.png,al1_con.png,44,23,NaN,NaN,0.85,0.85,1,1,1,1,Stable,Stable,1.731,0.853,2,1.202,expert
115,1673379264505,10/01/2023 19:34:24,1673379264262,0,10/01/2023 19:34:24,111483,5,task-xjip,repeat-7g8d#1->-repeat-38fk#1,26307347,BLIND,7766400,NaN,complete,NaN,63bdb71b374a15fbe31fe02d,computer,Desktop or Laptop,Windows 10,Chrome 108.0.0.0,1500x1000,1500x1000,Start of Day 2,SLS,90,A,Pass,End of Day 1,Pass,NaN,NaN,NaN,Pass,NaN,Pass,NaN,Start of Day 2,NaN,schedule_A,schedule_A,24,8,2,individual,Zone4,timelimit_screen,1000.31299999999,NaN,NaN,,NaN,0,1,0,NaN,NaN,1,NaN,NaN,trial_left,redBox.png,redBox.png,yellowBox.png,al1_con.png,44,23,NaN,NaN,0.85,0.85,1,1,1,1,Stable,Stable,1.731,0.853,2,1.202,expert
116,1673379265873,10/01/2023 19:34:25,1673379265626,0,10/01/2023 19:34:25,111483,5,task-xjip,repeat-7g8d#1->-repeat-38fk#1,26307347,BLIND,7766400,NaN,complete,NaN,63bdb71b374a15fbe31fe02d,computer,Desktop or Laptop,Windows 10,Chrome 108.0.0.0,1500x1000,1500x1000,Start of Day 2,SLS,90,A,Pass,End of Day 1,Pass,NaN,NaN,NaN,Pass,NaN,Pass,NaN,Start of Day 2,NaN,schedule_A,schedule_A,24,8,3,offer,Zone2,response_button_image,1359,NaN,NaN,redBox.png,1,1,0,0,NaN,NaN,NaN,NaN,NaN,trial_left,redBox.png,redBox.png,yellowBox.png,al1_con.png,44,23,NaN,NaN,0.85,0.85,1,1,1,1,Stable,Stable,1.731,0.853,2,1.202,expert
117,1673379267854,10/01/2023 19:34:27,1673379267612,0,10/01/2023 19:34:27,111483,5,task-xjip,repeat-7g8d#1->-repeat-38fk#1,26307347,BLIND,7766400,NaN,complete,NaN,63bdb71b374a15fbe31fe02d,computer,Desktop or Laptop,Windows 10,Chrome 108.0.0.0,1500x1000,1500x1000,Start of Day 2,SLS,90,A,Pass,End of Day 1,Pass,NaN,NaN,NaN,Pass,NaN,Pass,NaN,Start of Day 2,NaN,schedule_A,schedule_A,24,8,4,feedback_l,Zone7,timelimit_screen,2000.06200000001,NaN,NaN,,NaN,0,1,0,NaN,NaN,1,NaN,NaN,trial_left,redBox.png,redBox.png,yellowBox.png,al1_con.png,44,23,NaN,NaN,0.85,0.85,1,1,1,1,Stable,Stable,1.731,0.853,2,1.202,expert
118,1673379268007,10/01/2023 19:34:28,1673379267762,0,10/01/2023 19:34:27,111483,5,task-xjip,repeat-7g8d#1->-repeat-38fk#1,26307347,BLIND,7766400,NaN,complete,NaN,63bdb71b374a15fbe31fe02d,computer,Desktop or Laptop,Windows 10,Chrome 108.0.0.0,1500x1000,1500x1000,Start of Day 2,SLS,90,A,Pass,End of Day 1,Pass,NaN,NaN,NaN,Pass,NaN,Pass,NaN,Start of Day 2,NaN,schedule_A,schedule_A,24,8,6,end,Zone1,timelimit_screen,150.296000000002,NaN,NaN,,NaN,0,1,0,NaN,NaN,1,NaN,NaN,trial_left,redBox.png,redBox.png,yellowBox.png,al1_con.png,44,23,NaN,NaN,0.85,0.85,1,1,1,1,Stable,Stable,1.731,0.853,2,1.202,expert
119,1673379270079,10/01/2023 19:34:30,1673379269822,0,10/01/2023 19:34:29,111483,5,task-xjip,repeat-7g8d#1->-repeat-38fk#1,26307347,BLIND,7766400,NaN,complete,NaN,63bdb71b374a15fbe31fe02d,computer,Desktop or Laptop,Windows 10,Chrome 108.0.0.0,1500x1000,1500x1000,Start of Day 2,SLS,90,A,Pass,End of Day 1,Pass,NaN,NaN,NaN,Pass,NaN,Pass,NaN,Start of Day 2,NaN,schedule_A,schedule_A,25,16,1,Screen 1,Zone1,continue_button,2049.39999997616,NaN,NaN,,NaN,0,1,0,NaN,NaN,NaN,NaN,NaN,trial_right,redBox.png,yellowBox.png,redBox.png,al1_con.png,45,24,NaN,NaN,0.85,0.85,1,1,1,0,Stable,Stable,2.109,1.798,1.508,2.782,expert
120,1673379271068,10/01/2023 19:34:31,1673379270812,0,10/01/2023 19:34:30,111483,5,task-xjip,repeat-7g8d#1->-repeat-38fk#1,26307347,BLIND,7766400,NaN,complete,NaN,63bdb71b374a15fbe31fe02d,computer,Desktop or Laptop,Windows 10,Chrome 108.0.0.0,1500x1000,1500x1000,Start of Day 2,SLS,90,A,Pass,End of Day 1,Pass,NaN,NaN,NaN,Pass,NaN,Pass,NaN,Start of Day 2,NaN,schedule_A,schedule_A,25,16,2,individual,Zone4,timelimit_screen,1000.17600000001,NaN,NaN,,NaN,0,1,0,NaN,NaN,1,NaN,NaN,trial_right,redBox.png,yellowBox.png,redBox.png,al1_con.png,45,24,NaN,NaN,0.85,0.85,1,1,1,0,Stable,Stable,2.109,1.798,1.508,2.782,expert
121,1673379272373,10/01/2023 19:34:32,1673379272117,0,10/01/2023 19:34:32,111483,5,task-xjip,repeat-7g8d#1->-repeat-38fk#1,26307347,BLIND,7766400,NaN,complete,NaN,63bdb71b374a15fbe31fe02d,computer,Desktop or Laptop,Windows 10,Chrome 108.0.0.0,1500x1000,1500x1000,Start of Day 2,SLS,90,A,Pass,End of Day 1,Pass,NaN,NaN,NaN,Pass,NaN,Pass,NaN,Start of Day 2,NaN,schedule_A,schedule_A,25,16,3,offer,Zone3,response_button_image,1299.59999996424,NaN,NaN,redBox.png,1,1,0,0,NaN,NaN,NaN,NaN,NaN,trial_right,redBox.png,yellowBox.png,redBox.png,al1_con.png,45,24,NaN,NaN,0.85,0.85,1,1,1,0,Stable,Stable,2.109,1.798,1.508,2.782,expert
122,1673379274360,10/01/2023 19:34:34,1673379274112,0,10/01/2023 19:34:34,111483,5,task-xjip,repeat-7g8d#1->-repeat-38fk#1,26307347,BLIND,7766400,NaN,complete,NaN,63bdb71b374a15fbe31fe02d,computer,Desktop or Laptop,Windows 10,Chrome 108.0.0.0,1500x1000,1500x1000,Start of Day 2,SLS,90,A,Pass,End of Day 1,Pass,NaN,NaN,NaN,Pass,NaN,Pass,NaN,Start of Day 2,NaN,schedule_A,schedule_A,25,16,5,feedback_r,Zone7,timelimit_screen,1999.728,NaN,NaN,,NaN,0,1,0,NaN,NaN,1,NaN,NaN,trial_right,redBox.png,yellowBox.png,redBox.png,al1_con.png,45,24,NaN,NaN,0.85,0.85,1,1,1,0,Stable,Stable,2.109,1.798,1.508,2.782,expert
123,1673379274506,10/01/2023 19:34:34,1673379274262,0,10/01/2023 19:34:34,111483,5,task-xjip,repeat-7g8d#1->-repeat-38fk#1,26307347,BLIND,7766400,NaN,complete,NaN,63bdb71b374a15fbe31fe02d,computer,Desktop or Laptop,Windows 10,Chrome 108.0.0.0,1500x1000,1500x1000,Start of Day 2,SLS,90,A,Pass,End of Day 1,Pass,NaN,NaN,NaN,Pass,NaN,Pass,NaN,Start of Day 2,NaN,schedule_A,schedule_A,25,16,6,end,Zone1,timelimit_screen,149.824999999983,NaN,NaN,,NaN,0,1,0,NaN,NaN,1,NaN,NaN,trial_right,redBox.png,yellowBox.png,redBox.png,al1_con.png,45,24,NaN,NaN,0.85,0.85,1,1,1,0,Stable,Stable,2.109,1.798,1.508,2.782,expert
124,1673379275487,10/01/2023 19:34:35,1673379275246,0,10/01/2023 19:34:35,111483,5,task-xjip,repeat-7g8d#1->-repeat-38fk#1,26307347,BLIND,7766400,NaN,complete,NaN,63bdb71b374a15fbe31fe02d,computer,Desktop or Laptop,Windows 10,Chrome 108.0.0.0,1500x1000,1500x1000,Start of Day 2,SLS,90,A,Pass,End of Day 1,Pass,NaN,NaN,NaN,Pass,NaN,Pass,NaN,Start of Day 2,NaN,schedule_A,schedule_A,26,9,1,Screen 1,Zone1,continue_button,973.699999988079,NaN,NaN,,NaN,0,1,0,NaN,NaN,NaN,NaN,NaN,trial_left,redBox.png,redBox.png,yellowBox.png,al1_con.png,46,25,NaN,NaN,0.85,0.85,1,1,1,1,Stable,Stable,2.916,1.294,1.962,2.361,expert
125,1673379276483,10/01/2023 19:34:36,1673379276228,0,10/01/2023 19:34:36,111483,5,task-xjip,repeat-7g8d#1->-repeat-38fk#1,26307347,BLIND,7766400,NaN,complete,NaN,63bdb71b374a15fbe31fe02d,computer,Desktop or Laptop,Windows 10,Chrome 108.0.0.0,1500x1000,1500x1000,Start of Day 2,SLS,90,A,Pass,End of Day 1,Pass,NaN,NaN,NaN,Pass,NaN,Pass,NaN,Start of Day 2,NaN,schedule_A,schedule_A,26,9,2,individual,Zone4,timelimit_screen,1000.02900000001,NaN,NaN,,NaN,0,1,0,NaN,NaN,1,NaN,NaN,trial_left,redBox.png,redBox.png,yellowBox.png,al1_con.png,46,25,NaN,NaN,0.85,0.85,1,1,1,1,Stable,Stable,2.916,1.294,1.962,2.361,expert
126,1673379277568,10/01/2023 19:34:37,1673379277325,0,10/01/2023 19:34:37,111483,5,task-xjip,repeat-7g8d#1->-repeat-38fk#1,26307347,BLIND,7766400,NaN,complete,NaN,63bdb71b374a15fbe31fe02d,computer,Desktop or Laptop,Windows 10,Chrome 108.0.0.0,1500x1000,1500x1000,Start of Day 2,SLS,90,A,Pass,End of Day 1,Pass,NaN,NaN,NaN,Pass,NaN,Pass,NaN,Start of Day 2,NaN,schedule_A,schedule_A,26,9,3,offer,Zone2,response_button_image,1091.30000001192,NaN,NaN,redBox.png,1,1,0,0,NaN,NaN,NaN,NaN,NaN,trial_left,redBox.png,redBox.png,yellowBox.png,al1_con.png,46,25,NaN,NaN,0.85,0.85,1,1,1,1,Stable,Stable,2.916,1.294,1.962,2.361,expert
127,1673379279566,10/01/2023 19:34:39,1673379279312,0,10/01/2023 19:34:39,111483,5,task-xjip,repeat-7g8d#1->-repeat-38fk#1,26307347,BLIND,7766400,NaN,complete,NaN,63bdb71b374a15fbe31fe02d,computer,Desktop or Laptop,Windows 10,Chrome 108.0.0.0,1500x1000,1500x1000,Start of Day 2,SLS,90,A,Pass,End of Day 1,Pass,NaN,NaN,NaN,Pass,NaN,Pass,NaN,Start of Day 2,NaN,schedule_A,schedule_A,26,9,4,feedback_l,Zone7,timelimit_screen,1999.87100000001,NaN,NaN,,NaN,0,1,0,NaN,NaN,1,NaN,NaN,trial_left,redBox.png,redBox.png,yellowBox.png,al1_con.png,46,25,NaN,NaN,0.85,0.85,1,1,1,1,Stable,Stable,2.916,1.294,1.962,2.361,expert
128,1673379279704,10/01/2023 19:34:39,1673379279463,0,10/01/2023 19:34:39,111483,5,task-xjip,repeat-7g8d#1->-repeat-38fk#1,26307347,BLIND,7766400,NaN,complete,NaN,63bdb71b374a15fbe31fe02d,computer,Desktop or Laptop,Windows 10,Chrome 108.0.0.0,1500x1000,1500x1000,Start of Day 2,SLS,90,A,Pass,End of Day 1,Pass,NaN,NaN,NaN,Pass,NaN,Pass,NaN,Start of Day 2,NaN,schedule_A,schedule_A,26,9,6,end,Zone1,timelimit_screen,150.022999999986,NaN,NaN,,NaN,0,1,0,NaN,NaN,1,NaN,NaN,trial_left,redBox.png,redBox.png,yellowBox.png,al1_con.png,46,25,NaN,NaN,0.85,0.85,1,1,1,1,Stable,Stable,2.916,1.294,1.962,2.361,expert
129,1673379280628,10/01/2023 19:34:40,1673379280374,0,10/01/2023 19:34:40,111483,5,task-xjip,repeat-7g8d#1->-repeat-38fk#1,26307347,BLIND,7766400,NaN,complete,NaN,63bdb71b374a15fbe31fe02d,computer,Desktop or Laptop,Windows 10,Chrome 108.0.0.0,1500x1000,1500x1000,Start of Day 2,SLS,90,A,Pass,End of Day 1,Pass,NaN,NaN,NaN,Pass,NaN,Pass,NaN,Start of Day 2,NaN,schedule_A,schedule_A,27,17,1,Screen 1,Zone1,continue_button,901,NaN,NaN,,NaN,0,1,0,NaN,NaN,NaN,NaN,NaN,trial_right,redBox.png,yellowBox.png,redBox.png,al1_con.png,47,26,NaN,NaN,0.85,0.85,1,1,1,0,Stable,Stable,2.487,1.697,1.13,1.286,expert
130,1673379281608,10/01/2023 19:34:41,1673379281362,0,10/01/2023 19:34:41,111483,5,task-xjip,repeat-7g8d#1->-repeat-38fk#1,26307347,BLIND,7766400,NaN,complete,NaN,63bdb71b374a15fbe31fe02d,computer,Desktop or Laptop,Windows 10,Chrome 108.0.0.0,1500x1000,1500x1000,Start of Day 2,SLS,90,A,Pass,End of Day 1,Pass,NaN,NaN,NaN,Pass,NaN,Pass,NaN,Start of Day 2,NaN,schedule_A,schedule_A,27,17,2,individual,Zone4,timelimit_screen,1000.02299999999,NaN,NaN,,NaN,0,1,0,NaN,NaN,1,NaN,NaN,trial_right,redBox.png,yellowBox.png,redBox.png,al1_con.png,47,26,NaN,NaN,0.85,0.85,1,1,1,0,Stable,Stable,2.487,1.697,1.13,1.286,expert
131,1673379282842,10/01/2023 19:34:42,1673379282586,0,10/01/2023 19:34:42,111483,5,task-xjip,repeat-7g8d#1->-repeat-38fk#1,26307347,BLIND,7766400,NaN,complete,NaN,63bdb71b374a15fbe31fe02d,computer,Desktop or Laptop,Windows 10,Chrome 108.0.0.0,1500x1000,1500x1000,Start of Day 2,SLS,90,A,Pass,End of Day 1,Pass,NaN,NaN,NaN,Pass,NaN,Pass,NaN,Start of Day 2,NaN,schedule_A,schedule_A,27,17,3,offer,Zone3,response_button_image,1218.90000003576,NaN,NaN,redBox.png,1,1,0,0,NaN,NaN,NaN,NaN,NaN,trial_right,redBox.png,yellowBox.png,redBox.png,al1_con.png,47,26,NaN,NaN,0.85,0.85,1,1,1,0,Stable,Stable,2.487,1.697,1.13,1.286,expert
132,1673379284834,10/01/2023 19:34:44,1673379284578,0,10/01/2023 19:34:44,111483,5,task-xjip,repeat-7g8d#1->-repeat-38fk#1,26307347,BLIND,7766400,NaN,complete,NaN,63bdb71b374a15fbe31fe02d,computer,Desktop or Laptop,Windows 10,Chrome 108.0.0.0,1500x1000,1500x1000,Start of Day 2,SLS,90,A,Pass,End of Day 1,Pass,NaN,NaN,NaN,Pass,NaN,Pass,NaN,Start of Day 2,NaN,schedule_A,schedule_A,27,17,5,feedback_r,Zone7,timelimit_screen,1999.87800000003,NaN,NaN,,NaN,0,1,0,NaN,NaN,1,NaN,NaN,trial_right,redBox.png,yellowBox.png,redBox.png,al1_con.png,47,26,NaN,NaN,0.85,0.85,1,1,1,0,Stable,Stable,2.487,1.697,1.13,1.286,expert
133,1673379284969,10/01/2023 19:34:44,1673379284728,0,10/01/2023 19:34:44,111483,5,task-xjip,repeat-7g8d#1->-repeat-38fk#1,26307347,BLIND,7766400,NaN,complete,NaN,63bdb71b374a15fbe31fe02d,computer,Desktop or Laptop,Windows 10,Chrome 108.0.0.0,1500x1000,1500x1000,Start of Day 2,SLS,90,A,Pass,End of Day 1,Pass,NaN,NaN,NaN,Pass,NaN,Pass,NaN,Start of Day 2,NaN,schedule_A,schedule_A,27,17,6,end,Zone1,timelimit_screen,150.021999999997,NaN,NaN,,NaN,0,1,0,NaN,NaN,1,NaN,NaN,trial_right,redBox.png,yellowBox.png,redBox.png,al1_con.png,47,26,NaN,NaN,0.85,0.85,1,1,1,0,Stable,Stable,2.487,1.697,1.13,1.286,expert
134,1673379286446,10/01/2023 19:34:46,1673379286181,0,10/01/2023 19:34:46,111483,5,task-xjip,repeat-7g8d#1->-repeat-38fk#1,26307347,BLIND,7766400,NaN,complete,NaN,63bdb71b374a15fbe31fe02d,computer,Desktop or Laptop,Windows 10,Chrome 108.0.0.0,1500x1000,1500x1000,Start of Day 2,SLS,90,A,Pass,End of Day 1,Pass,NaN,NaN,NaN,Pass,NaN,Pass,NaN,Start of Day 2,NaN,schedule_A,schedule_A,28,10,1,Screen 1,Zone1,continue_button,1442.40000003576,NaN,NaN,,NaN,0,1,0,NaN,NaN,NaN,NaN,NaN,trial_left,redBox.png,redBox.png,yellowBox.png,al1_con.png,48,27,NaN,NaN,0.85,0.85,1,1,1,1,Stable,Stable,3.824,1.634,0.992,2.244,expert
135,1673379287435,10/01/2023 19:34:47,1673379287179,0,10/01/2023 19:34:47,111483,5,task-xjip,repeat-7g8d#1->-repeat-38fk#1,26307347,BLIND,7766400,NaN,complete,NaN,63bdb71b374a15fbe31fe02d,computer,Desktop or Laptop,Windows 10,Chrome 108.0.0.0,1500x1000,1500x1000,Start of Day 2,SLS,90,A,Pass,End of Day 1,Pass,NaN,NaN,NaN,Pass,NaN,Pass,NaN,Start of Day 2,NaN,schedule_A,schedule_A,28,10,2,individual,Zone4,timelimit_screen,1000.19899999999,NaN,NaN,,NaN,0,1,0,NaN,NaN,1,NaN,NaN,trial_left,redBox.png,redBox.png,yellowBox.png,al1_con.png,48,27,NaN,NaN,0.85,0.85,1,1,1,1,Stable,Stable,3.824,1.634,0.992,2.244,expert
136,1673379288508,10/01/2023 19:34:48,1673379288254,0,10/01/2023 19:34:48,111483,5,task-xjip,repeat-7g8d#1->-repeat-38fk#1,26307347,BLIND,7766400,NaN,complete,NaN,63bdb71b374a15fbe31fe02d,computer,Desktop or Laptop,Windows 10,Chrome 108.0.0.0,1500x1000,1500x1000,Start of Day 2,SLS,90,A,Pass,End of Day 1,Pass,NaN,NaN,NaN,Pass,NaN,Pass,NaN,Start of Day 2,NaN,schedule_A,schedule_A,28,10,3,offer,Zone2,response_button_image,1070.5,NaN,NaN,redBox.png,1,1,0,0,NaN,NaN,NaN,NaN,NaN,trial_left,redBox.png,redBox.png,yellowBox.png,al1_con.png,48,27,NaN,NaN,0.85,0.85,1,1,1,1,Stable,Stable,3.824,1.634,0.992,2.244,expert
137,1673379290504,10/01/2023 19:34:50,1673379290245,0,10/01/2023 19:34:50,111483,5,task-xjip,repeat-7g8d#1->-repeat-38fk#1,26307347,BLIND,7766400,NaN,complete,NaN,63bdb71b374a15fbe31fe02d,computer,Desktop or Laptop,Windows 10,Chrome 108.0.0.0,1500x1000,1500x1000,Start of Day 2,SLS,90,A,Pass,End of Day 1,Pass,NaN,NaN,NaN,Pass,NaN,Pass,NaN,Start of Day 2,NaN,schedule_A,schedule_A,28,10,4,feedback_l,Zone7,timelimit_screen,1999.95699999999,NaN,NaN,,NaN,0,1,0,NaN,NaN,1,NaN,NaN,trial_left,redBox.png,redBox.png,yellowBox.png,al1_con.png,48,27,NaN,NaN,0.85,0.85,1,1,1,1,Stable,Stable,3.824,1.634,0.992,2.244,expert
138,1673379290638,10/01/2023 19:34:50,1673379290395,0,10/01/2023 19:34:50,111483,5,task-xjip,repeat-7g8d#1->-repeat-38fk#1,26307347,BLIND,7766400,NaN,complete,NaN,63bdb71b374a15fbe31fe02d,computer,Desktop or Laptop,Windows 10,Chrome 108.0.0.0,1500x1000,1500x1000,Start of Day 2,SLS,90,A,Pass,End of Day 1,Pass,NaN,NaN,NaN,Pass,NaN,Pass,NaN,Start of Day 2,NaN,schedule_A,schedule_A,28,10,6,end,Zone1,timelimit_screen,149.965999999986,NaN,NaN,,NaN,0,1,0,NaN,NaN,1,NaN,NaN,trial_left,redBox.png,redBox.png,yellowBox.png,al1_con.png,48,27,NaN,NaN,0.85,0.85,1,1,1,1,Stable,Stable,3.824,1.634,0.992,2.244,expert
139,1673379291777,10/01/2023 19:34:51,1673379291521,0,10/01/2023 19:34:51,111483,5,task-xjip,repeat-7g8d#1->-repeat-38fk#1,26307347,BLIND,7766400,NaN,complete,NaN,63bdb71b374a15fbe31fe02d,computer,Desktop or Laptop,Windows 10,Chrome 108.0.0.0,1500x1000,1500x1000,Start of Day 2,SLS,90,A,Pass,End of Day 1,Pass,NaN,NaN,NaN,Pass,NaN,Pass,NaN,Start of Day 2,NaN,schedule_A,schedule_A,29,11,1,Screen 1,Zone1,continue_button,1111.10000002384,NaN,NaN,,NaN,0,1,0,NaN,NaN,NaN,NaN,NaN,trial_left,redBox.png,redBox.png,yellowBox.png,al1_con.png,49,28,NaN,NaN,0.85,0.85,1,1,1,1,Stable,Stable,2.84,1.937,1.723,2.815,expert
140,1673379292765,10/01/2023 19:34:52,1673379292512,0,10/01/2023 19:34:52,111483,5,task-xjip,repeat-7g8d#1->-repeat-38fk#1,26307347,BLIND,7766400,NaN,complete,NaN,63bdb71b374a15fbe31fe02d,computer,Desktop or Laptop,Windows 10,Chrome 108.0.0.0,1500x1000,1500x1000,Start of Day 2,SLS,90,A,Pass,End of Day 1,Pass,NaN,NaN,NaN,Pass,NaN,Pass,NaN,Start of Day 2,NaN,schedule_A,schedule_A,29,11,2,individual,Zone4,timelimit_screen,1000.43799999999,NaN,NaN,,NaN,0,1,0,NaN,NaN,1,NaN,NaN,trial_left,redBox.png,redBox.png,yellowBox.png,al1_con.png,49,28,NaN,NaN,0.85,0.85,1,1,1,1,Stable,Stable,2.84,1.937,1.723,2.815,expert
141,1673379293898,10/01/2023 19:34:53,1673379293635,0,10/01/2023 19:34:53,111483,5,task-xjip,repeat-7g8d#1->-repeat-38fk#1,26307347,BLIND,7766400,NaN,complete,NaN,63bdb71b374a15fbe31fe02d,computer,Desktop or Laptop,Windows 10,Chrome 108.0.0.0,1500x1000,1500x1000,Start of Day 2,SLS,90,A,Pass,End of Day 1,Pass,NaN,NaN,NaN,Pass,NaN,Pass,NaN,Start of Day 2,NaN,schedule_A,schedule_A,29,11,3,offer,Zone2,response_button_image,1117.5,NaN,NaN,redBox.png,1,1,0,0,NaN,NaN,NaN,NaN,NaN,trial_left,redBox.png,redBox.png,yellowBox.png,al1_con.png,49,28,NaN,NaN,0.85,0.85,1,1,1,1,Stable,Stable,2.84,1.937,1.723,2.815,expert
142,1673379295869,10/01/2023 19:34:55,1673379295628,0,10/01/2023 19:34:55,111483,5,task-xjip,repeat-7g8d#1->-repeat-38fk#1,26307347,BLIND,7766400,NaN,complete,NaN,63bdb71b374a15fbe31fe02d,computer,Desktop or Laptop,Windows 10,Chrome 108.0.0.0,1500x1000,1500x1000,Start of Day 2,SLS,90,A,Pass,End of Day 1,Pass,NaN,NaN,NaN,Pass,NaN,Pass,NaN,Start of Day 2,NaN,schedule_A,schedule_A,29,11,4,feedback_l,Zone7,timelimit_screen,1999.84700000001,NaN,NaN,,NaN,0,1,0,NaN,NaN,1,NaN,NaN,trial_left,redBox.png,redBox.png,yellowBox.png,al1_con.png,49,28,NaN,NaN,0.85,0.85,1,1,1,1,Stable,Stable,2.84,1.937,1.723,2.815,expert
143,1673379296032,10/01/2023 19:34:56,1673379295778,0,10/01/2023 19:34:55,111483,5,task-xjip,repeat-7g8d#1->-repeat-38fk#1,26307347,BLIND,7766400,NaN,complete,NaN,63bdb71b374a15fbe31fe02d,computer,Desktop or Laptop,Windows 10,Chrome 108.0.0.0,1500x1000,1500x1000,Start of Day 2,SLS,90,A,Pass,End of Day 1,Pass,NaN,NaN,NaN,Pass,NaN,Pass,NaN,Start of Day 2,NaN,schedule_A,schedule_A,29,11,6,end,Zone1,timelimit_screen,150.15400000001,NaN,NaN,,NaN,0,1,0,NaN,NaN,1,NaN,NaN,trial_left,redBox.png,redBox.png,yellowBox.png,al1_con.png,49,28,NaN,NaN,0.85,0.85,1,1,1,1,Stable,Stable,2.84,1.937,1.723,2.815,expert
144,1673379296857,10/01/2023 19:34:56,1673379296615,0,10/01/2023 19:34:56,111483,5,task-xjip,repeat-7g8d#1->-repeat-38fk#1,26307347,BLIND,7766400,NaN,complete,NaN,63bdb71b374a15fbe31fe02d,computer,Desktop or Laptop,Windows 10,Chrome 108.0.0.0,1500x1000,1500x1000,Start of Day 2,SLS,90,A,Pass,End of Day 1,Pass,NaN,NaN,NaN,Pass,NaN,Pass,NaN,Start of Day 2,NaN,schedule_A,schedule_A,30,18,1,Screen 1,Zone1,continue_button,826.300000011921,NaN,NaN,,NaN,0,1,0,NaN,NaN,NaN,NaN,NaN,trial_right,redBox.png,yellowBox.png,redBox.png,al1_con.png,50,29,NaN,NaN,0.85,0.85,1,1,1,0,Stable,Stable,2.941,1.71,0.664,1.336,expert
145,1673379297854,10/01/2023 19:34:57,1673379297612,0,10/01/2023 19:34:57,111483,5,task-xjip,repeat-7g8d#1->-repeat-38fk#1,26307347,BLIND,7766400,NaN,complete,NaN,63bdb71b374a15fbe31fe02d,computer,Desktop or Laptop,Windows 10,Chrome 108.0.0.0,1500x1000,1500x1000,Start of Day 2,SLS,90,A,Pass,End of Day 1,Pass,NaN,NaN,NaN,Pass,NaN,Pass,NaN,Start of Day 2,NaN,schedule_A,schedule_A,30,18,2,individual,Zone4,timelimit_screen,999.90399999998,NaN,NaN,,NaN,0,1,0,NaN,NaN,1,NaN,NaN,trial_right,redBox.png,yellowBox.png,redBox.png,al1_con.png,50,29,NaN,NaN,0.85,0.85,1,1,1,0,Stable,Stable,2.941,1.71,0.664,1.336,expert
146,1673379298903,10/01/2023 19:34:58,1673379298639,0,10/01/2023 19:34:58,111483,5,task-xjip,repeat-7g8d#1->-repeat-38fk#1,26307347,BLIND,7766400,NaN,complete,NaN,63bdb71b374a15fbe31fe02d,computer,Desktop or Laptop,Windows 10,Chrome 108.0.0.0,1500x1000,1500x1000,Start of Day 2,SLS,90,A,Pass,End of Day 1,Pass,NaN,NaN,NaN,Pass,NaN,Pass,NaN,Start of Day 2,NaN,schedule_A,schedule_A,30,18,3,offer,Zone3,response_button_image,1022.09999996424,NaN,NaN,redBox.png,1,1,0,0,NaN,NaN,NaN,NaN,NaN,trial_right,redBox.png,yellowBox.png,redBox.png,al1_con.png,50,29,NaN,NaN,0.85,0.85,1,1,1,0,Stable,Stable,2.941,1.71,0.664,1.336,expert
147,1673379300883,10/01/2023 19:35:00,1673379300629,0,10/01/2023 19:35:00,111483,5,task-xjip,repeat-7g8d#1->-repeat-38fk#1,26307347,BLIND,7766400,NaN,complete,NaN,63bdb71b374a15fbe31fe02d,computer,Desktop or Laptop,Windows 10,Chrome 108.0.0.0,1500x1000,1500x1000,Start of Day 2,SLS,90,A,Pass,End of Day 1,Pass,NaN,NaN,NaN,Pass,NaN,Pass,NaN,Start of Day 2,NaN,schedule_A,schedule_A,30,18,5,feedback_r,Zone7,timelimit_screen,2000.334,NaN,NaN,,NaN,0,1,0,NaN,NaN,1,NaN,NaN,trial_right,redBox.png,yellowBox.png,redBox.png,al1_con.png,50,29,NaN,NaN,0.85,0.85,1,1,1,0,Stable,Stable,2.941,1.71,0.664,1.336,expert
148,1673379301034,10/01/2023 19:35:01,1673379300778,0,10/01/2023 19:35:00,111483,5,task-xjip,repeat-7g8d#1->-repeat-38fk#1,26307347,BLIND,7766400,NaN,complete,NaN,63bdb71b374a15fbe31fe02d,computer,Desktop or Laptop,Windows 10,Chrome 108.0.0.0,1500x1000,1500x1000,Start of Day 2,SLS,90,A,Pass,End of Day 1,Pass,NaN,NaN,NaN,Pass,NaN,Pass,NaN,Start of Day 2,NaN,schedule_A,schedule_A,30,18,6,end,Zone1,timelimit_screen,149.675999999978,NaN,NaN,,NaN,0,1,0,NaN,NaN,1,NaN,NaN,trial_right,redBox.png,yellowBox.png,redBox.png,al1_con.png,50,29,NaN,NaN,0.85,0.85,1,1,1,0,Stable,Stable,2.941,1.71,0.664,1.336,expert
149,1673379301969,10/01/2023 19:35:01,1673379301721,0,10/01/2023 19:35:01,111483,5,task-xjip,repeat-7g8d#1->-repeat-38fk#1,26307347,BLIND,7766400,NaN,complete,NaN,63bdb71b374a15fbe31fe02d,computer,Desktop or Laptop,Windows 10,Chrome 108.0.0.0,1500x1000,1500x1000,Start of Day 2,SLS,90,A,Pass,End of Day 1,Pass,NaN,NaN,NaN,Pass,NaN,Pass,NaN,Start of Day 2,NaN,schedule_A,schedule_A,31,12,1,Screen 1,Zone1,continue_button,932.099999964237,NaN,NaN,,NaN,0,1,0,NaN,NaN,NaN,NaN,NaN,trial_left,redBox.png,redBox.png,yellowBox.png,al1_con.png,61,30,NaN,NaN,0.85,0.85,1,1,1,1,Stable,Stable,2.79,1.735,0.601,2.345,expert
150,1673379302953,10/01/2023 19:35:02,1673379302712,0,10/01/2023 19:35:02,111483,5,task-xjip,repeat-7g8d#1->-repeat-38fk#1,26307347,BLIND,7766400,NaN,complete,NaN,63bdb71b374a15fbe31fe02d,computer,Desktop or Laptop,Windows 10,Chrome 108.0.0.0,1500x1000,1500x1000,Start of Day 2,SLS,90,A,Pass,End of Day 1,Pass,NaN,NaN,NaN,Pass,NaN,Pass,NaN,Start of Day 2,NaN,schedule_A,schedule_A,31,12,2,individual,Zone4,timelimit_screen,999.964999999997,NaN,NaN,,NaN,0,1,0,NaN,NaN,1,NaN,NaN,trial_left,redBox.png,redBox.png,yellowBox.png,al1_con.png,61,30,NaN,NaN,0.85,0.85,1,1,1,1,Stable,Stable,2.79,1.735,0.601,2.345,expert
151,1673379304138,10/01/2023 19:35:04,1673379303883,0,10/01/2023 19:35:03,111483,5,task-xjip,repeat-7g8d#1->-repeat-38fk#1,26307347,BLIND,7766400,NaN,complete,NaN,63bdb71b374a15fbe31fe02d,computer,Desktop or Laptop,Windows 10,Chrome 108.0.0.0,1500x1000,1500x1000,Start of Day 2,SLS,90,A,Pass,End of Day 1,Pass,NaN,NaN,NaN,Pass,NaN,Pass,NaN,Start of Day 2,NaN,schedule_A,schedule_A,31,12,3,offer,Zone2,response_button_image,1166,NaN,NaN,redBox.png,1,1,0,0,NaN,NaN,NaN,NaN,NaN,trial_left,redBox.png,redBox.png,yellowBox.png,al1_con.png,61,30,NaN,NaN,0.85,0.85,1,1,1,1,Stable,Stable,2.79,1.735,0.601,2.345,expert
152,1673379306131,10/01/2023 19:35:06,1673379305878,0,10/01/2023 19:35:05,111483,5,task-xjip,repeat-7g8d#1->-repeat-38fk#1,26307347,BLIND,7766400,NaN,complete,NaN,63bdb71b374a15fbe31fe02d,computer,Desktop or Laptop,Windows 10,Chrome 108.0.0.0,1500x1000,1500x1000,Start of Day 2,SLS,90,A,Pass,End of Day 1,Pass,NaN,NaN,NaN,Pass,NaN,Pass,NaN,Start of Day 2,NaN,schedule_A,schedule_A,31,12,4,feedback_l,Zone7,timelimit_screen,1999.95300000001,NaN,NaN,,NaN,0,1,0,NaN,NaN,1,NaN,NaN,trial_left,redBox.png,redBox.png,yellowBox.png,al1_con.png,61,30,NaN,NaN,0.85,0.85,1,1,1,1,Stable,Stable,2.79,1.735,0.601,2.345,expert
153,1673379306284,10/01/2023 19:35:06,1673379306028,0,10/01/2023 19:35:06,111483,5,task-xjip,repeat-7g8d#1->-repeat-38fk#1,26307347,BLIND,7766400,NaN,complete,NaN,63bdb71b374a15fbe31fe02d,computer,Desktop or Laptop,Windows 10,Chrome 108.0.0.0,1500x1000,1500x1000,Start of Day 2,SLS,90,A,Pass,End of Day 1,Pass,NaN,NaN,NaN,Pass,NaN,Pass,NaN,Start of Day 2,NaN,schedule_A,schedule_A,31,12,6,end,Zone1,timelimit_screen,149.993999999977,NaN,NaN,,NaN,0,1,0,NaN,NaN,1,NaN,NaN,trial_left,redBox.png,redBox.png,yellowBox.png,al1_con.png,61,30,NaN,NaN,0.85,0.85,1,1,1,1,Stable,Stable,2.79,1.735,0.601,2.345,expert
154,1673379307189,10/01/2023 19:35:07,1673379306933,0,10/01/2023 19:35:06,111483,5,task-xjip,repeat-7g8d#1->-repeat-38fk#1,26307347,BLIND,7766400,NaN,complete,NaN,63bdb71b374a15fbe31fe02d,computer,Desktop or Laptop,Windows 10,Chrome 108.0.0.0,1500x1000,1500x1000,Start of Day 2,SLS,90,A,Pass,End of Day 1,Pass,NaN,NaN,NaN,Pass,NaN,Pass,NaN,Start of Day 2,NaN,schedule_A,schedule_A,32,19,1,Screen 1,Zone1,continue_button,894.800000011921,NaN,NaN,,NaN,0,1,0,NaN,NaN,NaN,NaN,NaN,trial_right,redBox.png,redBox.png,yellowBox.png,al1_con.png,62,31,NaN,NaN,0.85,0.15,1,0,0,1,Stable,Volatile,2.538,1.672,1.143,1.555,expert
155,1673379308190,10/01/2023 19:35:08,1673379307928,0,10/01/2023 19:35:07,111483,5,task-xjip,repeat-7g8d#1->-repeat-38fk#1,26307347,BLIND,7766400,NaN,complete,NaN,63bdb71b374a15fbe31fe02d,computer,Desktop or Laptop,Windows 10,Chrome 108.0.0.0,1500x1000,1500x1000,Start of Day 2,SLS,90,A,Pass,End of Day 1,Pass,NaN,NaN,NaN,Pass,NaN,Pass,NaN,Start of Day 2,NaN,schedule_A,schedule_A,32,19,2,individual,Zone4,timelimit_screen,1000.06900000002,NaN,NaN,,NaN,0,1,0,NaN,NaN,1,NaN,NaN,trial_right,redBox.png,redBox.png,yellowBox.png,al1_con.png,62,31,NaN,NaN,0.85,0.15,1,0,0,1,Stable,Volatile,2.538,1.672,1.143,1.555,expert
156,1673379309295,10/01/2023 19:35:09,1673379309028,0,10/01/2023 19:35:09,111483,5,task-xjip,repeat-7g8d#1->-repeat-38fk#1,26307347,BLIND,7766400,NaN,complete,NaN,63bdb71b374a15fbe31fe02d,computer,Desktop or Laptop,Windows 10,Chrome 108.0.0.0,1500x1000,1500x1000,Start of Day 2,SLS,90,A,Pass,End of Day 1,Pass,NaN,NaN,NaN,Pass,NaN,Pass,NaN,Start of Day 2,NaN,schedule_A,schedule_A,32,19,3,offer,Zone3,response_button_image,1094,NaN,NaN,yellowBox.png,1,0,1,0,NaN,NaN,NaN,NaN,NaN,trial_right,redBox.png,redBox.png,yellowBox.png,al1_con.png,62,31,NaN,NaN,0.85,0.15,1,0,0,1,Stable,Volatile,2.538,1.672,1.143,1.555,expert
157,1673379311272,10/01/2023 19:35:11,1673379311012,0,10/01/2023 19:35:11,111483,5,task-xjip,repeat-7g8d#1->-repeat-38fk#1,26307347,BLIND,7766400,NaN,complete,NaN,63bdb71b374a15fbe31fe02d,computer,Desktop or Laptop,Windows 10,Chrome 108.0.0.0,1500x1000,1500x1000,Start of Day 2,SLS,90,A,Pass,End of Day 1,Pass,NaN,NaN,NaN,Pass,NaN,Pass,NaN,Start of Day 2,NaN,schedule_A,schedule_A,32,19,5,feedback_r,Zone7,timelimit_screen,2000.152,NaN,NaN,,NaN,0,1,0,NaN,NaN,1,NaN,NaN,trial_right,redBox.png,redBox.png,yellowBox.png,al1_con.png,62,31,NaN,NaN,0.85,0.15,1,0,0,1,Stable,Volatile,2.538,1.672,1.143,1.555,expert
158,1673379311406,10/01/2023 19:35:11,1673379311162,0,10/01/2023 19:35:11,111483,5,task-xjip,repeat-7g8d#1->-repeat-38fk#1,26307347,BLIND,7766400,NaN,complete,NaN,63bdb71b374a15fbe31fe02d,computer,Desktop or Laptop,Windows 10,Chrome 108.0.0.0,1500x1000,1500x1000,Start of Day 2,SLS,90,A,Pass,End of Day 1,Pass,NaN,NaN,NaN,Pass,NaN,Pass,NaN,Start of Day 2,NaN,schedule_A,schedule_A,32,19,6,end,Zone1,timelimit_screen,150.006999999983,NaN,NaN,,NaN,0,1,0,NaN,NaN,1,NaN,NaN,trial_right,redBox.png,redBox.png,yellowBox.png,al1_con.png,62,31,NaN,NaN,0.85,0.15,1,0,0,1,Stable,Volatile,2.538,1.672,1.143,1.555,expert
159,1673379312338,10/01/2023 19:35:12,1673379312091,0,10/01/2023 19:35:12,111483,5,task-xjip,repeat-7g8d#1->-repeat-38fk#1,26307347,BLIND,7766400,NaN,complete,NaN,63bdb71b374a15fbe31fe02d,computer,Desktop or Laptop,Windows 10,Chrome 108.0.0.0,1500x1000,1500x1000,Start of Day 2,SLS,90,A,Pass,End of Day 1,Pass,NaN,NaN,NaN,Pass,NaN,Pass,NaN,Start of Day 2,NaN,schedule_A,schedule_A,33,13,1,Screen 1,Zone1,continue_button,918.699999988079,NaN,NaN,,NaN,0,1,0,NaN,NaN,NaN,NaN,NaN,trial_left,redBox.png,yellowBox.png,redBox.png,al1_con.png,63,32,NaN,NaN,0.85,0.15,1,0,0,0,Stable,Volatile,2.739,1.13,0.815,1.387,expert
160,1673379313336,10/01/2023 19:35:13,1673379313079,0,10/01/2023 19:35:13,111483,5,task-xjip,repeat-7g8d#1->-repeat-38fk#1,26307347,BLIND,7766400,NaN,complete,NaN,63bdb71b374a15fbe31fe02d,computer,Desktop or Laptop,Windows 10,Chrome 108.0.0.0,1500x1000,1500x1000,Start of Day 2,SLS,90,A,Pass,End of Day 1,Pass,NaN,NaN,NaN,Pass,NaN,Pass,NaN,Start of Day 2,NaN,schedule_A,schedule_A,33,13,2,individual,Zone4,timelimit_screen,1000.02299999999,NaN,NaN,,NaN,0,1,0,NaN,NaN,1,NaN,NaN,trial_left,redBox.png,yellowBox.png,redBox.png,al1_con.png,63,32,NaN,NaN,0.85,0.15,1,0,0,0,Stable,Volatile,2.739,1.13,0.815,1.387,expert
161,1673379314345,10/01/2023 19:35:14,1673379314084,0,10/01/2023 19:35:14,111483,5,task-xjip,repeat-7g8d#1->-repeat-38fk#1,26307347,BLIND,7766400,NaN,complete,NaN,63bdb71b374a15fbe31fe02d,computer,Desktop or Laptop,Windows 10,Chrome 108.0.0.0,1500x1000,1500x1000,Start of Day 2,SLS,90,A,Pass,End of Day 1,Pass,NaN,NaN,NaN,Pass,NaN,Pass,NaN,Start of Day 2,NaN,schedule_A,schedule_A,33,13,3,offer,Zone2,response_button_image,1000.5,NaN,NaN,yellowBox.png,1,0,1,0,NaN,NaN,NaN,NaN,NaN,trial_left,redBox.png,yellowBox.png,redBox.png,al1_con.png,63,32,NaN,NaN,0.85,0.15,1,0,0,0,Stable,Volatile,2.739,1.13,0.815,1.387,expert
162,1673379316340,10/01/2023 19:35:16,1673379316078,0,10/01/2023 19:35:16,111483,5,task-xjip,repeat-7g8d#1->-repeat-38fk#1,26307347,BLIND,7766400,NaN,complete,NaN,63bdb71b374a15fbe31fe02d,computer,Desktop or Laptop,Windows 10,Chrome 108.0.0.0,1500x1000,1500x1000,Start of Day 2,SLS,90,A,Pass,End of Day 1,Pass,NaN,NaN,NaN,Pass,NaN,Pass,NaN,Start of Day 2,NaN,schedule_A,schedule_A,33,13,4,feedback_l,Zone7,timelimit_screen,1999.88200000001,NaN,NaN,,NaN,0,1,0,NaN,NaN,1,NaN,NaN,trial_left,redBox.png,yellowBox.png,redBox.png,al1_con.png,63,32,NaN,NaN,0.85,0.15,1,0,0,0,Stable,Volatile,2.739,1.13,0.815,1.387,expert
