EventIndex,UTCTimestamp,UTCDate,LocalTimestamp,LocalTimezone,LocalDate,ExperimentID,ExperimentVersion,TreeNodeKey,RepeatKey,ScheduleID,ParticipantPublicID,ParticipantPrivateID,ParticipantStartingGroup,ParticipantStatus,ParticipantCompletionCode,ParticipantExternalSessionID,ParticipantDeviceType,ParticipantDevice,ParticipantOS,ParticipantBrowser,ParticipantMonitorSize,ParticipantViewportSize,Checkpoint,TaskName,TaskVersion,randomiser_6z9f,branch_kxy7,checkpoint_tqwf,branch_rtog,branch_7dgx,checkpoint_mqen,branch_yx2c,branch_3n8o,branch_f1s6,branch_x6l7,branch_21hs,checkpoint_iz27,checkpoint_sry6,Spreadsheet,SpreadsheetName,SpreadsheetRow,TrialNumber,ScreenNumber,ScreenName,ZoneName,ZoneType,ReactionTime,ReactionOnset,ResponseType,Response,Attempt,Correct,Incorrect,Dishonest,XCoordinate,YCoordinate,TimedOut,randomise_blocks,randomise_trials,display,ANSWER,left_button,right_button,advice,orderno,trialno,ShowProgressBar,image,prob_blue_corr,prob_group_corr,corr_ans,group_corr,group_choice,blue_pos,indiv_vol,soc_vol,ITI_1,ITI_2,ITI_3,ITI_4,condition
1,1673540862402,12/01/2023 16:27:42,1673540865560,0,12/01/2023 16:27:45,111483,5,task-qrxs,repeat-7g8d#1->-repeat-38fk#1->-repeat-qjz7#1->-repeat-5t6i#1,26348654,BLIND,7766409,NaN,complete,NaN,63c019471dfc66664bd1e86e,computer,Desktop or Laptop,Windows 10,Chrome 108.0.0.0,1366x768,1366x768,Start of Day 2,SLS,90,A,Pass,End of Day 1,Pass,NaN,NaN,NaN,Pass,NaN,Pass,NaN,Start of Day 2,NaN,schedule_B,,NaN,NaN,NaN,,,,NaN,NaN,NaN,,NaN,0,1,0,NaN,NaN,NaN,NaN,NaN,,,,,,NaN,NaN,NaN,NaN,NaN,NaN,NaN,NaN,NaN,NaN,,,NaN,NaN,NaN,NaN,
2,1673540864067,12/01/2023 16:27:44,1673540867256,0,12/01/2023 16:27:47,111483,5,task-qrxs,repeat-7g8d#1->-repeat-38fk#1->-repeat-qjz7#1->-repeat-5t6i#1,26348654,BLIND,7766409,NaN,complete,NaN,63c019471dfc66664bd1e86e,computer,Desktop or Laptop,Windows 10,Chrome 108.0.0.0,1366x768,1366x768,Start of Day 2,SLS,90,A,Pass,End of Day 1,Pass,NaN,NaN,NaN,Pass,NaN,Pass,NaN,Start of Day 2,NaN,schedule_B,schedule_B,1,1,1,Screen 1,Zone1,continue_button,1267,NaN,NaN,,NaN,0,1,0,NaN,NaN,NaN,NaN,NaN,getReadyb,,,,,1,NaN,NaN,NaN,NaN,NaN,NaN,NaN,NaN,NaN,,,NaN,NaN,NaN,NaN,
3,1673540865577,12/01/2023 16:27:45,1673540868782,0,12/01/2023 16:27:48,111483,5,task-qrxs,repeat-7g8d#1->-repeat-38fk#1->-repeat-qjz7#1->-repeat-5t6i#1,26348654,BLIND,7766409,NaN,complete,NaN,63c019471dfc66664bd1e86e,computer,Desktop or Laptop,Windows 10,Chrome 108.0.0.0,1366x768,1366x768,Start of Day 2,SLS,90,A,Pass,End of Day 1,Pass,NaN,NaN,NaN,Pass,NaN,Pass,NaN,Start of Day 2,NaN,schedule_B,schedule_B,1,1,2,Screen 2,Zone1,continue_button,1489.40000009537,NaN,NaN,,NaN,0,1,0,NaN,NaN,NaN,NaN,NaN,getReadyb,,,,,1,NaN,NaN,NaN,NaN,NaN,NaN,NaN,NaN,NaN,,,NaN,NaN,NaN,NaN,
4,1673540871946,12/01/2023 16:27:51,1673540875056,0,12/01/2023 16:27:55,111483,5,task-qrxs,repeat-7g8d#1->-repeat-38fk#1->-repeat-qjz7#1->-repeat-5t6i#1,26348654,BLIND,7766409,NaN,complete,NaN,63c019471dfc66664bd1e86e,computer,Desktop or Laptop,Windows 10,Chrome 108.0.0.0,1366x768,1366x768,Start of Day 2,SLS,90,A,Pass,End of Day 1,Pass,NaN,NaN,NaN,Pass,NaN,Pass,NaN,Start of Day 2,NaN,schedule_B,schedule_B,2,1,1,Screen 1,Zone1,continue_button,6183.10000002384,NaN,NaN,,NaN,0,1,0,NaN,NaN,NaN,NaN,NaN,trial_right,greenBox.png,greenBox.png,blueBox.png,al2_uncon.png,2,1,NaN,NaN,0.85,0.15,0,0,1,0,Stable,Stable,3.471,0.525,1.66,2.529,inexpert
5,1673540872926,12/01/2023 16:27:52,1673540876050,0,12/01/2023 16:27:56,111483,5,task-qrxs,repeat-7g8d#1->-repeat-38fk#1->-repeat-qjz7#1->-repeat-5t6i#1,26348654,BLIND,7766409,NaN,complete,NaN,63c019471dfc66664bd1e86e,computer,Desktop or Laptop,Windows 10,Chrome 108.0.0.0,1366x768,1366x768,Start of Day 2,SLS,90,A,Pass,End of Day 1,Pass,NaN,NaN,NaN,Pass,NaN,Pass,NaN,Start of Day 2,NaN,schedule_B,schedule_B,2,1,2,individual,Zone4,timelimit_screen,1001.063,NaN,NaN,,NaN,0,1,0,NaN,NaN,1,NaN,NaN,trial_right,greenBox.png,greenBox.png,blueBox.png,al2_uncon.png,2,1,NaN,NaN,0.85,0.15,0,0,1,0,Stable,Stable,3.471,0.525,1.66,2.529,inexpert
6,1673540873984,12/01/2023 16:27:53,1673540877202,0,12/01/2023 16:27:57,111483,5,task-qrxs,repeat-7g8d#1->-repeat-38fk#1->-repeat-qjz7#1->-repeat-5t6i#1,26348654,BLIND,7766409,NaN,complete,NaN,63c019471dfc66664bd1e86e,computer,Desktop or Laptop,Windows 10,Chrome 108.0.0.0,1366x768,1366x768,Start of Day 2,SLS,90,A,Pass,End of Day 1,Pass,NaN,NaN,NaN,Pass,NaN,Pass,NaN,Start of Day 2,NaN,schedule_B,schedule_B,2,1,3,offer,Zone3,response_button_image,1086,NaN,NaN,blueBox.png,1,0,1,0,NaN,NaN,NaN,NaN,NaN,trial_right,greenBox.png,greenBox.png,blueBox.png,al2_uncon.png,2,1,NaN,NaN,0.85,0.15,0,0,1,0,Stable,Stable,3.471,0.525,1.66,2.529,inexpert
7,1673540876068,12/01/2023 16:27:56,1673540879190,0,12/01/2023 16:27:59,111483,5,task-qrxs,repeat-7g8d#1->-repeat-38fk#1->-repeat-qjz7#1->-repeat-5t6i#1,26348654,BLIND,7766409,NaN,complete,NaN,63c019471dfc66664bd1e86e,computer,Desktop or Laptop,Windows 10,Chrome 108.0.0.0,1366x768,1366x768,Start of Day 2,SLS,90,A,Pass,End of Day 1,Pass,NaN,NaN,NaN,Pass,NaN,Pass,NaN,Start of Day 2,NaN,schedule_B,schedule_B,2,1,5,feedback_r,Zone7,timelimit_screen,1999.901,NaN,NaN,,NaN,0,1,0,NaN,NaN,1,NaN,NaN,trial_right,greenBox.png,greenBox.png,blueBox.png,al2_uncon.png,2,1,NaN,NaN,0.85,0.15,0,0,1,0,Stable,Stable,3.471,0.525,1.66,2.529,inexpert
8,1673540876189,12/01/2023 16:27:56,1673540879342,0,12/01/2023 16:27:59,111483,5,task-qrxs,repeat-7g8d#1->-repeat-38fk#1->-repeat-qjz7#1->-repeat-5t6i#1,26348654,BLIND,7766409,NaN,complete,NaN,63c019471dfc66664bd1e86e,computer,Desktop or Laptop,Windows 10,Chrome 108.0.0.0,1366x768,1366x768,Start of Day 2,SLS,90,A,Pass,End of Day 1,Pass,NaN,NaN,NaN,Pass,NaN,Pass,NaN,Start of Day 2,NaN,schedule_B,schedule_B,2,1,6,end,Zone1,timelimit_screen,149.998,NaN,NaN,,NaN,0,1,0,NaN,NaN,1,NaN,NaN,trial_right,greenBox.png,greenBox.png,blueBox.png,al2_uncon.png,2,1,NaN,NaN,0.85,0.15,0,0,1,0,Stable,Stable,3.471,0.525,1.66,2.529,inexpert
9,1673540881201,12/01/2023 16:28:01,1673540884411,0,12/01/2023 16:28:04,111483,5,task-qrxs,repeat-7g8d#1->-repeat-38fk#1->-repeat-qjz7#1->-repeat-5t6i#1,26348654,BLIND,7766409,NaN,complete,NaN,63c019471dfc66664bd1e86e,computer,Desktop or Laptop,Windows 10,Chrome 108.0.0.0,1366x768,1366x768,Start of Day 2,SLS,90,A,Pass,End of Day 1,Pass,NaN,NaN,NaN,Pass,NaN,Pass,NaN,Start of Day 2,NaN,schedule_B,schedule_B,3,1,1,Screen 1,Zone1,continue_button,5008.70000004768,NaN,NaN,,NaN,0,1,0,NaN,NaN,NaN,NaN,NaN,trial_left,blueBox.png,greenBox.png,blueBox.png,al2_uncon.png,3,2,NaN,NaN,0.85,0.15,1,0,0,0,Stable,Stable,1.782,1.168,1.168,2.462,inexpert
10,1673540882219,12/01/2023 16:28:02,1673540885407,0,12/01/2023 16:28:05,111483,5,task-qrxs,repeat-7g8d#1->-repeat-38fk#1->-repeat-qjz7#1->-repeat-5t6i#1,26348654,BLIND,7766409,NaN,complete,NaN,63c019471dfc66664bd1e86e,computer,Desktop or Laptop,Windows 10,Chrome 108.0.0.0,1366x768,1366x768,Start of Day 2,SLS,90,A,Pass,End of Day 1,Pass,NaN,NaN,NaN,Pass,NaN,Pass,NaN,Start of Day 2,NaN,schedule_B,schedule_B,3,1,2,individual,Zone4,timelimit_screen,999.942999999999,NaN,NaN,,NaN,0,1,0,NaN,NaN,1,NaN,NaN,trial_left,blueBox.png,greenBox.png,blueBox.png,al2_uncon.png,3,2,NaN,NaN,0.85,0.15,1,0,0,0,Stable,Stable,1.782,1.168,1.168,2.462,inexpert
11,1673540883241,12/01/2023 16:28:03,1673540886445,0,12/01/2023 16:28:06,111483,5,task-qrxs,repeat-7g8d#1->-repeat-38fk#1->-repeat-qjz7#1->-repeat-5t6i#1,26348654,BLIND,7766409,NaN,complete,NaN,63c019471dfc66664bd1e86e,computer,Desktop or Laptop,Windows 10,Chrome 108.0.0.0,1366x768,1366x768,Start of Day 2,SLS,90,A,Pass,End of Day 1,Pass,NaN,NaN,NaN,Pass,NaN,Pass,NaN,Start of Day 2,NaN,schedule_B,schedule_B,3,1,3,offer,Zone2,response_button_image,979.800000071526,NaN,NaN,greenBox.png,1,0,1,0,NaN,NaN,NaN,NaN,NaN,trial_left,blueBox.png,greenBox.png,blueBox.png,al2_uncon.png,3,2,NaN,NaN,0.85,0.15,1,0,0,0,Stable,Stable,1.782,1.168,1.168,2.462,inexpert
12,1673540885232,12/01/2023 16:28:05,1673540888440,0,12/01/2023 16:28:08,111483,5,task-qrxs,repeat-7g8d#1->-repeat-38fk#1->-repeat-qjz7#1->-repeat-5t6i#1,26348654,BLIND,7766409,NaN,complete,NaN,63c019471dfc66664bd1e86e,computer,Desktop or Laptop,Windows 10,Chrome 108.0.0.0,1366x768,1366x768,Start of Day 2,SLS,90,A,Pass,End of Day 1,Pass,NaN,NaN,NaN,Pass,NaN,Pass,NaN,Start of Day 2,NaN,schedule_B,schedule_B,3,1,4,feedback_l,Zone7,timelimit_screen,1999.915,NaN,NaN,,NaN,0,1,0,NaN,NaN,1,NaN,NaN,trial_left,blueBox.png,greenBox.png,blueBox.png,al2_uncon.png,3,2,NaN,NaN,0.85,0.15,1,0,0,0,Stable,Stable,1.782,1.168,1.168,2.462,inexpert
13,1673540885385,12/01/2023 16:28:05,1673540888598,0,12/01/2023 16:28:08,111483,5,task-qrxs,repeat-7g8d#1->-repeat-38fk#1->-repeat-qjz7#1->-repeat-5t6i#1,26348654,BLIND,7766409,NaN,complete,NaN,63c019471dfc66664bd1e86e,computer,Desktop or Laptop,Windows 10,Chrome 108.0.0.0,1366x768,1366x768,Start of Day 2,SLS,90,A,Pass,End of Day 1,Pass,NaN,NaN,NaN,Pass,NaN,Pass,NaN,Start of Day 2,NaN,schedule_B,schedule_B,3,1,6,end,Zone1,timelimit_screen,149.977999999999,NaN,NaN,,NaN,0,1,0,NaN,NaN,1,NaN,NaN,trial_left,blueBox.png,greenBox.png,blueBox.png,al2_uncon.png,3,2,NaN,NaN,0.85,0.15,1,0,0,0,Stable,Stable,1.782,1.168,1.168,2.462,inexpert
14,1673540888954,12/01/2023 16:28:08,1673540892066,0,12/01/2023 16:28:12,111483,5,task-qrxs,repeat-7g8d#1->-repeat-38fk#1->-repeat-qjz7#1->-repeat-5t6i#1,26348654,BLIND,7766409,NaN,complete,NaN,63c019471dfc66664bd1e86e,computer,Desktop or Laptop,Windows 10,Chrome 108.0.0.0,1366x768,1366x768,Start of Day 2,SLS,90,A,Pass,End of Day 1,Pass,NaN,NaN,NaN,Pass,NaN,Pass,NaN,Start of Day 2,NaN,schedule_B,schedule_B,4,2,1,Screen 1,Zone1,continue_button,3368.5,NaN,NaN,,NaN,0,1,0,NaN,NaN,NaN,NaN,NaN,trial_left,blueBox.png,greenBox.png,blueBox.png,al2_uncon.png,4,3,NaN,NaN,0.85,0.15,1,0,0,0,Stable,Stable,1.983,1.181,0.538,1.588,inexpert
15,1673540889853,12/01/2023 16:28:09,1673540893062,0,12/01/2023 16:28:13,111483,5,task-qrxs,repeat-7g8d#1->-repeat-38fk#1->-repeat-qjz7#1->-repeat-5t6i#1,26348654,BLIND,7766409,NaN,complete,NaN,63c019471dfc66664bd1e86e,computer,Desktop or Laptop,Windows 10,Chrome 108.0.0.0,1366x768,1366x768,Start of Day 2,SLS,90,A,Pass,End of Day 1,Pass,NaN,NaN,NaN,Pass,NaN,Pass,NaN,Start of Day 2,NaN,schedule_B,schedule_B,4,2,2,individual,Zone4,timelimit_screen,1001.582,NaN,NaN,,NaN,0,1,0,NaN,NaN,1,NaN,NaN,trial_left,blueBox.png,greenBox.png,blueBox.png,al2_uncon.png,4,3,NaN,NaN,0.85,0.15,1,0,0,0,Stable,Stable,1.983,1.181,0.538,1.588,inexpert
16,1673540890525,12/01/2023 16:28:10,1673540893738,0,12/01/2023 16:28:13,111483,5,task-qrxs,repeat-7g8d#1->-repeat-38fk#1->-repeat-qjz7#1->-repeat-5t6i#1,26348654,BLIND,7766409,NaN,complete,NaN,63c019471dfc66664bd1e86e,computer,Desktop or Laptop,Windows 10,Chrome 108.0.0.0,1366x768,1366x768,Start of Day 2,SLS,90,A,Pass,End of Day 1,Pass,NaN,NaN,NaN,Pass,NaN,Pass,NaN,Start of Day 2,NaN,schedule_B,schedule_B,4,2,3,offer,bluebox,response_button_image,624.300000071526,NaN,NaN,blueBox.png,1,1,0,0,NaN,NaN,NaN,NaN,NaN,trial_left,blueBox.png,greenBox.png,blueBox.png,al2_uncon.png,4,3,NaN,NaN,0.85,0.15,1,0,0,0,Stable,Stable,1.983,1.181,0.538,1.588,inexpert
17,1673540892515,12/01/2023 16:28:12,1673540895726,0,12/01/2023 16:28:15,111483,5,task-qrxs,repeat-7g8d#1->-repeat-38fk#1->-repeat-qjz7#1->-repeat-5t6i#1,26348654,BLIND,7766409,NaN,complete,NaN,63c019471dfc66664bd1e86e,computer,Desktop or Laptop,Windows 10,Chrome 108.0.0.0,1366x768,1366x768,Start of Day 2,SLS,90,A,Pass,End of Day 1,Pass,NaN,NaN,NaN,Pass,NaN,Pass,NaN,Start of Day 2,NaN,schedule_B,schedule_B,4,2,5,feedback_r,Zone7,timelimit_screen,1997.136,NaN,NaN,,NaN,0,1,0,NaN,NaN,1,NaN,NaN,trial_left,blueBox.png,greenBox.png,blueBox.png,al2_uncon.png,4,3,NaN,NaN,0.85,0.15,1,0,0,0,Stable,Stable,1.983,1.181,0.538,1.588,inexpert
18,1673540892647,12/01/2023 16:28:12,1673540895873,0,12/01/2023 16:28:15,111483,5,task-qrxs,repeat-7g8d#1->-repeat-38fk#1->-repeat-qjz7#1->-repeat-5t6i#1,26348654,BLIND,7766409,NaN,complete,NaN,63c019471dfc66664bd1e86e,computer,Desktop or Laptop,Windows 10,Chrome 108.0.0.0,1366x768,1366x768,Start of Day 2,SLS,90,A,Pass,End of Day 1,Pass,NaN,NaN,NaN,Pass,NaN,Pass,NaN,Start of Day 2,NaN,schedule_B,schedule_B,4,2,6,end,Zone1,timelimit_screen,149.271000000001,NaN,NaN,,NaN,0,1,0,NaN,NaN,1,NaN,NaN,trial_left,blueBox.png,greenBox.png,blueBox.png,al2_uncon.png,4,3,NaN,NaN,0.85,0.15,1,0,0,0,Stable,Stable,1.983,1.181,0.538,1.588,inexpert
19,1673540893645,12/01/2023 16:28:13,1673540896850,0,12/01/2023 16:28:16,111483,5,task-qrxs,repeat-7g8d#1->-repeat-38fk#1->-repeat-qjz7#1->-repeat-5t6i#1,26348654,BLIND,7766409,NaN,complete,NaN,63c019471dfc66664bd1e86e,computer,Desktop or Laptop,Windows 10,Chrome 108.0.0.0,1366x768,1366x768,Start of Day 2,SLS,90,A,Pass,End of Day 1,Pass,NaN,NaN,NaN,Pass,NaN,Pass,NaN,Start of Day 2,NaN,schedule_B,schedule_B,5,2,1,Screen 1,Zone1,continue_button,945,NaN,NaN,,NaN,0,1,0,NaN,NaN,NaN,NaN,NaN,trial_right,greenBox.png,greenBox.png,blueBox.png,al2_uncon.png,5,4,NaN,NaN,0.85,0.15,0,0,1,0,Stable,Stable,1.529,0.891,1.004,1,inexpert
20,1673540894632,12/01/2023 16:28:14,1673540897841,0,12/01/2023 16:28:17,111483,5,task-qrxs,repeat-7g8d#1->-repeat-38fk#1->-repeat-qjz7#1->-repeat-5t6i#1,26348654,BLIND,7766409,NaN,complete,NaN,63c019471dfc66664bd1e86e,computer,Desktop or Laptop,Windows 10,Chrome 108.0.0.0,1366x768,1366x768,Start of Day 2,SLS,90,A,Pass,End of Day 1,Pass,NaN,NaN,NaN,Pass,NaN,Pass,NaN,Start of Day 2,NaN,schedule_B,schedule_B,5,2,2,individual,Zone4,timelimit_screen,999.847000000002,NaN,NaN,,NaN,0,1,0,NaN,NaN,1,NaN,NaN,trial_right,greenBox.png,greenBox.png,blueBox.png,al2_uncon.png,5,4,NaN,NaN,0.85,0.15,0,0,1,0,Stable,Stable,1.529,0.891,1.004,1,inexpert
21,1673540895649,12/01/2023 16:28:15,1673540898861,0,12/01/2023 16:28:18,111483,5,task-qrxs,repeat-7g8d#1->-repeat-38fk#1->-repeat-qjz7#1->-repeat-5t6i#1,26348654,BLIND,7766409,NaN,complete,NaN,63c019471dfc66664bd1e86e,computer,Desktop or Laptop,Windows 10,Chrome 108.0.0.0,1366x768,1366x768,Start of Day 2,SLS,90,A,Pass,End of Day 1,Pass,NaN,NaN,NaN,Pass,NaN,Pass,NaN,Start of Day 2,NaN,schedule_B,schedule_B,5,2,3,offer,Zone2,response_button_image,963.700000047684,NaN,NaN,greenBox.png,1,1,0,0,NaN,NaN,NaN,NaN,NaN,trial_right,greenBox.png,greenBox.png,blueBox.png,al2_uncon.png,5,4,NaN,NaN,0.85,0.15,0,0,1,0,Stable,Stable,1.529,0.891,1.004,1,inexpert
22,1673540897737,12/01/2023 16:28:17,1673540900856,0,12/01/2023 16:28:20,111483,5,task-qrxs,repeat-7g8d#1->-repeat-38fk#1->-repeat-qjz7#1->-repeat-5t6i#1,26348654,BLIND,7766409,NaN,complete,NaN,63c019471dfc66664bd1e86e,computer,Desktop or Laptop,Windows 10,Chrome 108.0.0.0,1366x768,1366x768,Start of Day 2,SLS,90,A,Pass,End of Day 1,Pass,NaN,NaN,NaN,Pass,NaN,Pass,NaN,Start of Day 2,NaN,schedule_B,schedule_B,5,2,4,feedback_l,Zone7,timelimit_screen,1999.912,NaN,NaN,,NaN,0,1,0,NaN,NaN,1,NaN,NaN,trial_right,greenBox.png,greenBox.png,blueBox.png,al2_uncon.png,5,4,NaN,NaN,0.85,0.15,0,0,1,0,Stable,Stable,1.529,0.891,1.004,1,inexpert
23,1673540897959,12/01/2023 16:28:17,1673540901005,0,12/01/2023 16:28:21,111483,5,task-qrxs,repeat-7g8d#1->-repeat-38fk#1->-repeat-qjz7#1->-repeat-5t6i#1,26348654,BLIND,7766409,NaN,complete,NaN,63c019471dfc66664bd1e86e,computer,Desktop or Laptop,Windows 10,Chrome 108.0.0.0,1366x768,1366x768,Start of Day 2,SLS,90,A,Pass,End of Day 1,Pass,NaN,NaN,NaN,Pass,NaN,Pass,NaN,Start of Day 2,NaN,schedule_B,schedule_B,5,2,6,end,Zone1,timelimit_screen,149.976999999999,NaN,NaN,,NaN,0,1,0,NaN,NaN,1,NaN,NaN,trial_right,greenBox.png,greenBox.png,blueBox.png,al2_uncon.png,5,4,NaN,NaN,0.85,0.15,0,0,1,0,Stable,Stable,1.529,0.891,1.004,1,inexpert
24,1673540898753,12/01/2023 16:28:18,1673540901962,0,12/01/2023 16:28:21,111483,5,task-qrxs,repeat-7g8d#1->-repeat-38fk#1->-repeat-qjz7#1->-repeat-5t6i#1,26348654,BLIND,7766409,NaN,complete,NaN,63c019471dfc66664bd1e86e,computer,Desktop or Laptop,Windows 10,Chrome 108.0.0.0,1366x768,1366x768,Start of Day 2,SLS,90,A,Pass,End of Day 1,Pass,NaN,NaN,NaN,Pass,NaN,Pass,NaN,Start of Day 2,NaN,schedule_B,schedule_B,6,3,1,Screen 1,Zone1,continue_button,886.600000023842,NaN,NaN,,NaN,0,1,0,NaN,NaN,NaN,NaN,NaN,trial_left,blueBox.png,greenBox.png,blueBox.png,al2_uncon.png,6,5,NaN,NaN,0.85,0.15,1,0,0,0,Stable,Stable,1.832,1.118,0.752,1.79,inexpert
25,1673540899738,12/01/2023 16:28:19,1673540902956,0,12/01/2023 16:28:22,111483,5,task-qrxs,repeat-7g8d#1->-repeat-38fk#1->-repeat-qjz7#1->-repeat-5t6i#1,26348654,BLIND,7766409,NaN,complete,NaN,63c019471dfc66664bd1e86e,computer,Desktop or Laptop,Windows 10,Chrome 108.0.0.0,1366x768,1366x768,Start of Day 2,SLS,90,A,Pass,End of Day 1,Pass,NaN,NaN,NaN,Pass,NaN,Pass,NaN,Start of Day 2,NaN,schedule_B,schedule_B,6,3,2,individual,Zone4,timelimit_screen,999.946000000004,NaN,NaN,,NaN,0,1,0,NaN,NaN,1,NaN,NaN,trial_left,blueBox.png,greenBox.png,blueBox.png,al2_uncon.png,6,5,NaN,NaN,0.85,0.15,1,0,0,0,Stable,Stable,1.832,1.118,0.752,1.79,inexpert
26,1673540900844,12/01/2023 16:28:20,1673540904058,0,12/01/2023 16:28:24,111483,5,task-qrxs,repeat-7g8d#1->-repeat-38fk#1->-repeat-qjz7#1->-repeat-5t6i#1,26348654,BLIND,7766409,NaN,complete,NaN,63c019471dfc66664bd1e86e,computer,Desktop or Laptop,Windows 10,Chrome 108.0.0.0,1366x768,1366x768,Start of Day 2,SLS,90,A,Pass,End of Day 1,Pass,NaN,NaN,NaN,Pass,NaN,Pass,NaN,Start of Day 2,NaN,schedule_B,schedule_B,6,3,3,offer,bluebox,response_button_image,1053.10000002384,NaN,NaN,blueBox.png,1,1,0,0,NaN,NaN,NaN,NaN,NaN,trial_left,blueBox.png,greenBox.png,blueBox.png,al2_uncon.png,6,5,NaN,NaN,0.85,0.15,1,0,0,0,Stable,Stable,1.832,1.118,0.752,1.79,inexpert
27,1673540902822,12/01/2023 16:28:22,1673540906039,0,12/01/2023 16:28:26,111483,5,task-qrxs,repeat-7g8d#1->-repeat-38fk#1->-repeat-qjz7#1->-repeat-5t6i#1,26348654,BLIND,7766409,NaN,complete,NaN,63c019471dfc66664bd1e86e,computer,Desktop or Laptop,Windows 10,Chrome 108.0.0.0,1366x768,1366x768,Start of Day 2,SLS,90,A,Pass,End of Day 1,Pass,NaN,NaN,NaN,Pass,NaN,Pass,NaN,Start of Day 2,NaN,schedule_B,schedule_B,6,3,5,feedback_r,Zone7,timelimit_screen,1999.915,NaN,NaN,,NaN,0,1,0,NaN,NaN,1,NaN,NaN,trial_left,blueBox.png,greenBox.png,blueBox.png,al2_uncon.png,6,5,NaN,NaN,0.85,0.15,1,0,0,0,Stable,Stable,1.832,1.118,0.752,1.79,inexpert
28,1673540903183,12/01/2023 16:28:23,1673540906192,0,12/01/2023 16:28:26,111483,5,task-qrxs,repeat-7g8d#1->-repeat-38fk#1->-repeat-qjz7#1->-repeat-5t6i#1,26348654,BLIND,7766409,NaN,complete,NaN,63c019471dfc66664bd1e86e,computer,Desktop or Laptop,Windows 10,Chrome 108.0.0.0,1366x768,1366x768,Start of Day 2,SLS,90,A,Pass,End of Day 1,Pass,NaN,NaN,NaN,Pass,NaN,Pass,NaN,Start of Day 2,NaN,schedule_B,schedule_B,6,3,6,end,Zone1,timelimit_screen,149.878000000004,NaN,NaN,,NaN,0,1,0,NaN,NaN,1,NaN,NaN,trial_left,blueBox.png,greenBox.png,blueBox.png,al2_uncon.png,6,5,NaN,NaN,0.85,0.15,1,0,0,0,Stable,Stable,1.832,1.118,0.752,1.79,inexpert
29,1673540904064,12/01/2023 16:28:24,1673540907278,0,12/01/2023 16:28:27,111483,5,task-qrxs,repeat-7g8d#1->-repeat-38fk#1->-repeat-qjz7#1->-repeat-5t6i#1,26348654,BLIND,7766409,NaN,complete,NaN,63c019471dfc66664bd1e86e,computer,Desktop or Laptop,Windows 10,Chrome 108.0.0.0,1366x768,1366x768,Start of Day 2,SLS,90,A,Pass,End of Day 1,Pass,NaN,NaN,NaN,Pass,NaN,Pass,NaN,Start of Day 2,NaN,schedule_B,schedule_B,7,3,1,Screen 1,Zone1,continue_button,1025.69999992847,NaN,NaN,,NaN,0,1,0,NaN,NaN,NaN,NaN,NaN,trial_right,greenBox.png,greenBox.png,blueBox.png,al2_uncon.png,7,6,NaN,NaN,0.15,0.15,0,0,1,0,Stable,Stable,3.294,0.815,1.282,2.664,inexpert
30,1673540905066,12/01/2023 16:28:25,1673540908257,0,12/01/2023 16:28:28,111483,5,task-qrxs,repeat-7g8d#1->-repeat-38fk#1->-repeat-qjz7#1->-repeat-5t6i#1,26348654,BLIND,7766409,NaN,complete,NaN,63c019471dfc66664bd1e86e,computer,Desktop or Laptop,Windows 10,Chrome 108.0.0.0,1366x768,1366x768,Start of Day 2,SLS,90,A,Pass,End of Day 1,Pass,NaN,NaN,NaN,Pass,NaN,Pass,NaN,Start of Day 2,NaN,schedule_B,schedule_B,7,3,2,individual,Zone4,timelimit_screen,999.943999999996,NaN,NaN,,NaN,0,1,0,NaN,NaN,1,NaN,NaN,trial_right,greenBox.png,greenBox.png,blueBox.png,al2_uncon.png,7,6,NaN,NaN,0.15,0.15,0,0,1,0,Stable,Stable,3.294,0.815,1.282,2.664,inexpert
31,1673540905605,12/01/2023 16:28:25,1673540908828,0,12/01/2023 16:28:28,111483,5,task-qrxs,repeat-7g8d#1->-repeat-38fk#1->-repeat-qjz7#1->-repeat-5t6i#1,26348654,BLIND,7766409,NaN,complete,NaN,63c019471dfc66664bd1e86e,computer,Desktop or Laptop,Windows 10,Chrome 108.0.0.0,1366x768,1366x768,Start of Day 2,SLS,90,A,Pass,End of Day 1,Pass,NaN,NaN,NaN,Pass,NaN,Pass,NaN,Start of Day 2,NaN,schedule_B,schedule_B,7,3,3,offer,Zone2,response_button_image,538.599999904633,NaN,NaN,greenBox.png,1,1,0,0,NaN,NaN,NaN,NaN,NaN,trial_right,greenBox.png,greenBox.png,blueBox.png,al2_uncon.png,7,6,NaN,NaN,0.15,0.15,0,0,1,0,Stable,Stable,3.294,0.815,1.282,2.664,inexpert
32,1673540907690,12/01/2023 16:28:27,1673540910822,0,12/01/2023 16:28:30,111483,5,task-qrxs,repeat-7g8d#1->-repeat-38fk#1->-repeat-qjz7#1->-repeat-5t6i#1,26348654,BLIND,7766409,NaN,complete,NaN,63c019471dfc66664bd1e86e,computer,Desktop or Laptop,Windows 10,Chrome 108.0.0.0,1366x768,1366x768,Start of Day 2,SLS,90,A,Pass,End of Day 1,Pass,NaN,NaN,NaN,Pass,NaN,Pass,NaN,Start of Day 2,NaN,schedule_B,schedule_B,7,3,4,feedback_l,Zone7,timelimit_screen,1999.891,NaN,NaN,,NaN,0,1,0,NaN,NaN,1,NaN,NaN,trial_right,greenBox.png,greenBox.png,blueBox.png,al2_uncon.png,7,6,NaN,NaN,0.15,0.15,0,0,1,0,Stable,Stable,3.294,0.815,1.282,2.664,inexpert
33,1673540907807,12/01/2023 16:28:27,1673540910972,0,12/01/2023 16:28:30,111483,5,task-qrxs,repeat-7g8d#1->-repeat-38fk#1->-repeat-qjz7#1->-repeat-5t6i#1,26348654,BLIND,7766409,NaN,complete,NaN,63c019471dfc66664bd1e86e,computer,Desktop or Laptop,Windows 10,Chrome 108.0.0.0,1366x768,1366x768,Start of Day 2,SLS,90,A,Pass,End of Day 1,Pass,NaN,NaN,NaN,Pass,NaN,Pass,NaN,Start of Day 2,NaN,schedule_B,schedule_B,7,3,6,end,Zone1,timelimit_screen,150,NaN,NaN,,NaN,0,1,0,NaN,NaN,1,NaN,NaN,trial_right,greenBox.png,greenBox.png,blueBox.png,al2_uncon.png,7,6,NaN,NaN,0.15,0.15,0,0,1,0,Stable,Stable,3.294,0.815,1.282,2.664,inexpert
34,1673540908490,12/01/2023 16:28:28,1673540911698,0,12/01/2023 16:28:31,111483,5,task-qrxs,repeat-7g8d#1->-repeat-38fk#1->-repeat-qjz7#1->-repeat-5t6i#1,26348654,BLIND,7766409,NaN,complete,NaN,63c019471dfc66664bd1e86e,computer,Desktop or Laptop,Windows 10,Chrome 108.0.0.0,1366x768,1366x768,Start of Day 2,SLS,90,A,Pass,End of Day 1,Pass,NaN,NaN,NaN,Pass,NaN,Pass,NaN,Start of Day 2,NaN,schedule_B,schedule_B,8,4,1,Screen 1,Zone1,continue_button,673.600000023842,NaN,NaN,,NaN,0,1,0,NaN,NaN,NaN,NaN,NaN,trial_left,greenBox.png,blueBox.png,greenBox.png,al2_uncon.png,8,7,NaN,NaN,0.15,0.15,0,0,1,1,Stable,Stable,3.269,1.37,1.786,2.328,inexpert
35,1673540909471,12/01/2023 16:28:29,1673540912689,0,12/01/2023 16:28:32,111483,5,task-qrxs,repeat-7g8d#1->-repeat-38fk#1->-repeat-qjz7#1->-repeat-5t6i#1,26348654,BLIND,7766409,NaN,complete,NaN,63c019471dfc66664bd1e86e,computer,Desktop or Laptop,Windows 10,Chrome 108.0.0.0,1366x768,1366x768,Start of Day 2,SLS,90,A,Pass,End of Day 1,Pass,NaN,NaN,NaN,Pass,NaN,Pass,NaN,Start of Day 2,NaN,schedule_B,schedule_B,8,4,2,individual,Zone4,timelimit_screen,1000.035,NaN,NaN,,NaN,0,1,0,NaN,NaN,1,NaN,NaN,trial_left,greenBox.png,blueBox.png,greenBox.png,al2_uncon.png,8,7,NaN,NaN,0.15,0.15,0,0,1,1,Stable,Stable,3.269,1.37,1.786,2.328,inexpert
36,1673540910140,12/01/2023 16:28:30,1673540913341,0,12/01/2023 16:28:33,111483,5,task-qrxs,repeat-7g8d#1->-repeat-38fk#1->-repeat-qjz7#1->-repeat-5t6i#1,26348654,BLIND,7766409,NaN,complete,NaN,63c019471dfc66664bd1e86e,computer,Desktop or Laptop,Windows 10,Chrome 108.0.0.0,1366x768,1366x768,Start of Day 2,SLS,90,A,Pass,End of Day 1,Pass,NaN,NaN,NaN,Pass,NaN,Pass,NaN,Start of Day 2,NaN,schedule_B,schedule_B,8,4,3,offer,bluebox,response_button_image,612.199999928474,NaN,NaN,greenBox.png,1,1,0,0,NaN,NaN,NaN,NaN,NaN,trial_left,greenBox.png,blueBox.png,greenBox.png,al2_uncon.png,8,7,NaN,NaN,0.15,0.15,0,0,1,1,Stable,Stable,3.269,1.37,1.786,2.328,inexpert
37,1673540912115,12/01/2023 16:28:32,1673540915322,0,12/01/2023 16:28:35,111483,5,task-qrxs,repeat-7g8d#1->-repeat-38fk#1->-repeat-qjz7#1->-repeat-5t6i#1,26348654,BLIND,7766409,NaN,complete,NaN,63c019471dfc66664bd1e86e,computer,Desktop or Laptop,Windows 10,Chrome 108.0.0.0,1366x768,1366x768,Start of Day 2,SLS,90,A,Pass,End of Day 1,Pass,NaN,NaN,NaN,Pass,NaN,Pass,NaN,Start of Day 2,NaN,schedule_B,schedule_B,8,4,5,feedback_r,Zone7,timelimit_screen,1999.80100000001,NaN,NaN,,NaN,0,1,0,NaN,NaN,1,NaN,NaN,trial_left,greenBox.png,blueBox.png,greenBox.png,al2_uncon.png,8,7,NaN,NaN,0.15,0.15,0,0,1,1,Stable,Stable,3.269,1.37,1.786,2.328,inexpert
38,1673540912286,12/01/2023 16:28:32,1673540915472,0,12/01/2023 16:28:35,111483,5,task-qrxs,repeat-7g8d#1->-repeat-38fk#1->-repeat-qjz7#1->-repeat-5t6i#1,26348654,BLIND,7766409,NaN,complete,NaN,63c019471dfc66664bd1e86e,computer,Desktop or Laptop,Windows 10,Chrome 108.0.0.0,1366x768,1366x768,Start of Day 2,SLS,90,A,Pass,End of Day 1,Pass,NaN,NaN,NaN,Pass,NaN,Pass,NaN,Start of Day 2,NaN,schedule_B,schedule_B,8,4,6,end,Zone1,timelimit_screen,150.089999999997,NaN,NaN,,NaN,0,1,0,NaN,NaN,1,NaN,NaN,trial_left,greenBox.png,blueBox.png,greenBox.png,al2_uncon.png,8,7,NaN,NaN,0.15,0.15,0,0,1,1,Stable,Stable,3.269,1.37,1.786,2.328,inexpert
39,1673540912769,12/01/2023 16:28:32,1673540915978,0,12/01/2023 16:28:35,111483,5,task-qrxs,repeat-7g8d#1->-repeat-38fk#1->-repeat-qjz7#1->-repeat-5t6i#1,26348654,BLIND,7766409,NaN,complete,NaN,63c019471dfc66664bd1e86e,computer,Desktop or Laptop,Windows 10,Chrome 108.0.0.0,1366x768,1366x768,Start of Day 2,SLS,90,A,Pass,End of Day 1,Pass,NaN,NaN,NaN,Pass,NaN,Pass,NaN,Start of Day 2,NaN,schedule_B,schedule_B,9,4,1,Screen 1,Zone1,continue_button,428.5,NaN,NaN,,NaN,0,1,0,NaN,NaN,NaN,NaN,NaN,trial_right,blueBox.png,blueBox.png,greenBox.png,al2_uncon.png,9,8,NaN,NaN,0.15,0.15,1,0,0,1,Stable,Stable,3.975,0.576,1.256,1.807,inexpert
40,1673540913841,12/01/2023 16:28:33,1673540916976,0,12/01/2023 16:28:36,111483,5,task-qrxs,repeat-7g8d#1->-repeat-38fk#1->-repeat-qjz7#1->-repeat-5t6i#1,26348654,BLIND,7766409,NaN,complete,NaN,63c019471dfc66664bd1e86e,computer,Desktop or Laptop,Windows 10,Chrome 108.0.0.0,1366x768,1366x768,Start of Day 2,SLS,90,A,Pass,End of Day 1,Pass,NaN,NaN,NaN,Pass,NaN,Pass,NaN,Start of Day 2,NaN,schedule_B,schedule_B,9,4,2,individual,Zone4,timelimit_screen,999.896999999997,NaN,NaN,,NaN,0,1,0,NaN,NaN,1,NaN,NaN,trial_right,blueBox.png,blueBox.png,greenBox.png,al2_uncon.png,9,8,NaN,NaN,0.15,0.15,1,0,0,1,Stable,Stable,3.975,0.576,1.256,1.807,inexpert
41,1673540914365,12/01/2023 16:28:34,1673540917569,0,12/01/2023 16:28:37,111483,5,task-qrxs,repeat-7g8d#1->-repeat-38fk#1->-repeat-qjz7#1->-repeat-5t6i#1,26348654,BLIND,7766409,NaN,complete,NaN,63c019471dfc66664bd1e86e,computer,Desktop or Laptop,Windows 10,Chrome 108.0.0.0,1366x768,1366x768,Start of Day 2,SLS,90,A,Pass,End of Day 1,Pass,NaN,NaN,NaN,Pass,NaN,Pass,NaN,Start of Day 2,NaN,schedule_B,schedule_B,9,4,3,offer,Zone2,response_button_image,552.5,NaN,NaN,blueBox.png,1,1,0,0,NaN,NaN,NaN,NaN,NaN,trial_right,blueBox.png,blueBox.png,greenBox.png,al2_uncon.png,9,8,NaN,NaN,0.15,0.15,1,0,0,1,Stable,Stable,3.975,0.576,1.256,1.807,inexpert
42,1673540916425,12/01/2023 16:28:36,1673540919555,0,12/01/2023 16:28:39,111483,5,task-qrxs,repeat-7g8d#1->-repeat-38fk#1->-repeat-qjz7#1->-repeat-5t6i#1,26348654,BLIND,7766409,NaN,complete,NaN,63c019471dfc66664bd1e86e,computer,Desktop or Laptop,Windows 10,Chrome 108.0.0.0,1366x768,1366x768,Start of Day 2,SLS,90,A,Pass,End of Day 1,Pass,NaN,NaN,NaN,Pass,NaN,Pass,NaN,Start of Day 2,NaN,schedule_B,schedule_B,9,4,4,feedback_l,Zone7,timelimit_screen,1999.914,NaN,NaN,,NaN,0,1,0,NaN,NaN,1,NaN,NaN,trial_right,blueBox.png,blueBox.png,greenBox.png,al2_uncon.png,9,8,NaN,NaN,0.15,0.15,1,0,0,1,Stable,Stable,3.975,0.576,1.256,1.807,inexpert
43,1673540916565,12/01/2023 16:28:36,1673540919705,0,12/01/2023 16:28:39,111483,5,task-qrxs,repeat-7g8d#1->-repeat-38fk#1->-repeat-qjz7#1->-repeat-5t6i#1,26348654,BLIND,7766409,NaN,complete,NaN,63c019471dfc66664bd1e86e,computer,Desktop or Laptop,Windows 10,Chrome 108.0.0.0,1366x768,1366x768,Start of Day 2,SLS,90,A,Pass,End of Day 1,Pass,NaN,NaN,NaN,Pass,NaN,Pass,NaN,Start of Day 2,NaN,schedule_B,schedule_B,9,4,6,end,Zone1,timelimit_screen,150,NaN,NaN,,NaN,0,1,0,NaN,NaN,1,NaN,NaN,trial_right,blueBox.png,blueBox.png,greenBox.png,al2_uncon.png,9,8,NaN,NaN,0.15,0.15,1,0,0,1,Stable,Stable,3.975,0.576,1.256,1.807,inexpert
44,1673540921090,12/01/2023 16:28:41,1673540924292,0,12/01/2023 16:28:44,111483,5,task-qrxs,repeat-7g8d#1->-repeat-38fk#1->-repeat-qjz7#1->-repeat-5t6i#1,26348654,BLIND,7766409,NaN,complete,NaN,63c019471dfc66664bd1e86e,computer,Desktop or Laptop,Windows 10,Chrome 108.0.0.0,1366x768,1366x768,Start of Day 2,SLS,90,A,Pass,End of Day 1,Pass,NaN,NaN,NaN,Pass,NaN,Pass,NaN,Start of Day 2,NaN,schedule_B,schedule_B,10,5,1,Screen 1,Zone1,continue_button,4521.70000004768,NaN,NaN,,NaN,0,1,0,NaN,NaN,NaN,NaN,NaN,trial_left,greenBox.png,blueBox.png,greenBox.png,al2_uncon.png,10,9,NaN,NaN,0.15,0.15,0,0,1,1,Stable,Stable,3.798,1.055,1.559,2.042,inexpert
45,1673540922076,12/01/2023 16:28:42,1673540925284,0,12/01/2023 16:28:45,111483,5,task-qrxs,repeat-7g8d#1->-repeat-38fk#1->-repeat-qjz7#1->-repeat-5t6i#1,26348654,BLIND,7766409,NaN,complete,NaN,63c019471dfc66664bd1e86e,computer,Desktop or Laptop,Windows 10,Chrome 108.0.0.0,1366x768,1366x768,Start of Day 2,SLS,90,A,Pass,End of Day 1,Pass,NaN,NaN,NaN,Pass,NaN,Pass,NaN,Start of Day 2,NaN,schedule_B,schedule_B,10,5,2,individual,Zone4,timelimit_screen,996.904000000002,NaN,NaN,,NaN,0,1,0,NaN,NaN,1,NaN,NaN,trial_left,greenBox.png,blueBox.png,greenBox.png,al2_uncon.png,10,9,NaN,NaN,0.15,0.15,0,0,1,1,Stable,Stable,3.798,1.055,1.559,2.042,inexpert
46,1673540923257,12/01/2023 16:28:43,1673540926456,0,12/01/2023 16:28:46,111483,5,task-qrxs,repeat-7g8d#1->-repeat-38fk#1->-repeat-qjz7#1->-repeat-5t6i#1,26348654,BLIND,7766409,NaN,complete,NaN,63c019471dfc66664bd1e86e,computer,Desktop or Laptop,Windows 10,Chrome 108.0.0.0,1366x768,1366x768,Start of Day 2,SLS,90,A,Pass,End of Day 1,Pass,NaN,NaN,NaN,Pass,NaN,Pass,NaN,Start of Day 2,NaN,schedule_B,schedule_B,10,5,3,offer,bluebox,response_button_image,1127.89999997616,NaN,NaN,greenBox.png,1,1,0,0,NaN,NaN,NaN,NaN,NaN,trial_left,greenBox.png,blueBox.png,greenBox.png,al2_uncon.png,10,9,NaN,NaN,0.15,0.15,0,0,1,1,Stable,Stable,3.798,1.055,1.559,2.042,inexpert
47,1673540925235,12/01/2023 16:28:45,1673540928450,0,12/01/2023 16:28:48,111483,5,task-qrxs,repeat-7g8d#1->-repeat-38fk#1->-repeat-qjz7#1->-repeat-5t6i#1,26348654,BLIND,7766409,NaN,complete,NaN,63c019471dfc66664bd1e86e,computer,Desktop or Laptop,Windows 10,Chrome 108.0.0.0,1366x768,1366x768,Start of Day 2,SLS,90,A,Pass,End of Day 1,Pass,NaN,NaN,NaN,Pass,NaN,Pass,NaN,Start of Day 2,NaN,schedule_B,schedule_B,10,5,5,feedback_r,Zone7,timelimit_screen,1999.256,NaN,NaN,,NaN,0,1,0,NaN,NaN,1,NaN,NaN,trial_left,greenBox.png,blueBox.png,greenBox.png,al2_uncon.png,10,9,NaN,NaN,0.15,0.15,0,0,1,1,Stable,Stable,3.798,1.055,1.559,2.042,inexpert
48,1673540925382,12/01/2023 16:28:45,1673540928600,0,12/01/2023 16:28:48,111483,5,task-qrxs,repeat-7g8d#1->-repeat-38fk#1->-repeat-qjz7#1->-repeat-5t6i#1,26348654,BLIND,7766409,NaN,complete,NaN,63c019471dfc66664bd1e86e,computer,Desktop or Laptop,Windows 10,Chrome 108.0.0.0,1366x768,1366x768,Start of Day 2,SLS,90,A,Pass,End of Day 1,Pass,NaN,NaN,NaN,Pass,NaN,Pass,NaN,Start of Day 2,NaN,schedule_B,schedule_B,10,5,6,end,Zone1,timelimit_screen,149.985000000001,NaN,NaN,,NaN,0,1,0,NaN,NaN,1,NaN,NaN,trial_left,greenBox.png,blueBox.png,greenBox.png,al2_uncon.png,10,9,NaN,NaN,0.15,0.15,0,0,1,1,Stable,Stable,3.798,1.055,1.559,2.042,inexpert
49,1673540926740,12/01/2023 16:28:46,1673540929859,0,12/01/2023 16:28:49,111483,5,task-qrxs,repeat-7g8d#1->-repeat-38fk#1->-repeat-qjz7#1->-repeat-5t6i#1,26348654,BLIND,7766409,NaN,complete,NaN,63c019471dfc66664bd1e86e,computer,Desktop or Laptop,Windows 10,Chrome 108.0.0.0,1366x768,1366x768,Start of Day 2,SLS,90,A,Pass,End of Day 1,Pass,NaN,NaN,NaN,Pass,NaN,Pass,NaN,Start of Day 2,NaN,schedule_B,schedule_B,11,5,1,Screen 1,Zone1,continue_button,1167.30000007153,NaN,NaN,,NaN,0,1,0,NaN,NaN,NaN,NaN,NaN,trial_right,greenBox.png,greenBox.png,blueBox.png,al2_uncon.png,21,10,NaN,NaN,0.15,0.15,0,0,1,0,Stable,Stable,1.857,0.5,1.294,2.916,inexpert
50,1673540927642,12/01/2023 16:28:47,1673540930852,0,12/01/2023 16:28:50,111483,5,task-qrxs,repeat-7g8d#1->-repeat-38fk#1->-repeat-qjz7#1->-repeat-5t6i#1,26348654,BLIND,7766409,NaN,complete,NaN,63c019471dfc66664bd1e86e,computer,Desktop or Laptop,Windows 10,Chrome 108.0.0.0,1366x768,1366x768,Start of Day 2,SLS,90,A,Pass,End of Day 1,Pass,NaN,NaN,NaN,Pass,NaN,Pass,NaN,Start of Day 2,NaN,schedule_B,schedule_B,11,5,2,individual,Zone4,timelimit_screen,999.940999999999,NaN,NaN,,NaN,0,1,0,NaN,NaN,1,NaN,NaN,trial_right,greenBox.png,greenBox.png,blueBox.png,al2_uncon.png,21,10,NaN,NaN,0.15,0.15,0,0,1,0,Stable,Stable,1.857,0.5,1.294,2.916,inexpert
51,1673540928366,12/01/2023 16:28:48,1673540931578,0,12/01/2023 16:28:51,111483,5,task-qrxs,repeat-7g8d#1->-repeat-38fk#1->-repeat-qjz7#1->-repeat-5t6i#1,26348654,BLIND,7766409,NaN,complete,NaN,63c019471dfc66664bd1e86e,computer,Desktop or Laptop,Windows 10,Chrome 108.0.0.0,1366x768,1366x768,Start of Day 2,SLS,90,A,Pass,End of Day 1,Pass,NaN,NaN,NaN,Pass,NaN,Pass,NaN,Start of Day 2,NaN,schedule_B,schedule_B,11,5,3,offer,Zone2,response_button_image,667.899999976158,NaN,NaN,greenBox.png,1,1,0,0,NaN,NaN,NaN,NaN,NaN,trial_right,greenBox.png,greenBox.png,blueBox.png,al2_uncon.png,21,10,NaN,NaN,0.15,0.15,0,0,1,0,Stable,Stable,1.857,0.5,1.294,2.916,inexpert
52,1673540930367,12/01/2023 16:28:50,1673540933566,0,12/01/2023 16:28:53,111483,5,task-qrxs,repeat-7g8d#1->-repeat-38fk#1->-repeat-qjz7#1->-repeat-5t6i#1,26348654,BLIND,7766409,NaN,complete,NaN,63c019471dfc66664bd1e86e,computer,Desktop or Laptop,Windows 10,Chrome 108.0.0.0,1366x768,1366x768,Start of Day 2,SLS,90,A,Pass,End of Day 1,Pass,NaN,NaN,NaN,Pass,NaN,Pass,NaN,Start of Day 2,NaN,schedule_B,schedule_B,11,5,4,feedback_l,Zone7,timelimit_screen,1999.90100000001,NaN,NaN,,NaN,0,1,0,NaN,NaN,1,NaN,NaN,trial_right,greenBox.png,greenBox.png,blueBox.png,al2_uncon.png,21,10,NaN,NaN,0.15,0.15,0,0,1,0,Stable,Stable,1.857,0.5,1.294,2.916,inexpert
53,1673540930493,12/01/2023 16:28:50,1673540933716,0,12/01/2023 16:28:53,111483,5,task-qrxs,repeat-7g8d#1->-repeat-38fk#1->-repeat-qjz7#1->-repeat-5t6i#1,26348654,BLIND,7766409,NaN,complete,NaN,63c019471dfc66664bd1e86e,computer,Desktop or Laptop,Windows 10,Chrome 108.0.0.0,1366x768,1366x768,Start of Day 2,SLS,90,A,Pass,End of Day 1,Pass,NaN,NaN,NaN,Pass,NaN,Pass,NaN,Start of Day 2,NaN,schedule_B,schedule_B,11,5,6,end,Zone1,timelimit_screen,149.979999999996,NaN,NaN,,NaN,0,1,0,NaN,NaN,1,NaN,NaN,trial_right,greenBox.png,greenBox.png,blueBox.png,al2_uncon.png,21,10,NaN,NaN,0.15,0.15,0,0,1,0,Stable,Stable,1.857,0.5,1.294,2.916,inexpert
54,1673540931263,12/01/2023 16:28:51,1673540934476,0,12/01/2023 16:28:54,111483,5,task-qrxs,repeat-7g8d#1->-repeat-38fk#1->-repeat-qjz7#1->-repeat-5t6i#1,26348654,BLIND,7766409,NaN,complete,NaN,63c019471dfc66664bd1e86e,computer,Desktop or Laptop,Windows 10,Chrome 108.0.0.0,1366x768,1366x768,Start of Day 2,SLS,90,A,Pass,End of Day 1,Pass,NaN,NaN,NaN,Pass,NaN,Pass,NaN,Start of Day 2,NaN,schedule_B,schedule_B,12,6,1,Screen 1,Zone1,continue_button,710.600000023842,NaN,NaN,,NaN,0,1,0,NaN,NaN,NaN,NaN,NaN,trial_left,blueBox.png,greenBox.png,blueBox.png,al2_uncon.png,22,11,NaN,NaN,0.85,0.15,1,0,0,0,Stable,Stable,1.126,1.849,1.483,1.689,inexpert
55,1673540932257,12/01/2023 16:28:52,1673540935467,0,12/01/2023 16:28:55,111483,5,task-qrxs,repeat-7g8d#1->-repeat-38fk#1->-repeat-qjz7#1->-repeat-5t6i#1,26348654,BLIND,7766409,NaN,complete,NaN,63c019471dfc66664bd1e86e,computer,Desktop or Laptop,Windows 10,Chrome 108.0.0.0,1366x768,1366x768,Start of Day 2,SLS,90,A,Pass,End of Day 1,Pass,NaN,NaN,NaN,Pass,NaN,Pass,NaN,Start of Day 2,NaN,schedule_B,schedule_B,12,6,2,individual,Zone4,timelimit_screen,999.940999999992,NaN,NaN,,NaN,0,1,0,NaN,NaN,1,NaN,NaN,trial_left,blueBox.png,greenBox.png,blueBox.png,al2_uncon.png,22,11,NaN,NaN,0.85,0.15,1,0,0,0,Stable,Stable,1.126,1.849,1.483,1.689,inexpert
56,1673540933432,12/01/2023 16:28:53,1673540936638,0,12/01/2023 16:28:56,111483,5,task-qrxs,repeat-7g8d#1->-repeat-38fk#1->-repeat-qjz7#1->-repeat-5t6i#1,26348654,BLIND,7766409,NaN,complete,NaN,63c019471dfc66664bd1e86e,computer,Desktop or Laptop,Windows 10,Chrome 108.0.0.0,1366x768,1366x768,Start of Day 2,SLS,90,A,Pass,End of Day 1,Pass,NaN,NaN,NaN,Pass,NaN,Pass,NaN,Start of Day 2,NaN,schedule_B,schedule_B,12,6,3,offer,bluebox,response_button_image,1122.60000002384,NaN,NaN,blueBox.png,1,1,0,0,NaN,NaN,NaN,NaN,NaN,trial_left,blueBox.png,greenBox.png,blueBox.png,al2_uncon.png,22,11,NaN,NaN,0.85,0.15,1,0,0,0,Stable,Stable,1.126,1.849,1.483,1.689,inexpert
57,1673540935426,12/01/2023 16:28:55,1673540938634,0,12/01/2023 16:28:58,111483,5,task-qrxs,repeat-7g8d#1->-repeat-38fk#1->-repeat-qjz7#1->-repeat-5t6i#1,26348654,BLIND,7766409,NaN,complete,NaN,63c019471dfc66664bd1e86e,computer,Desktop or Laptop,Windows 10,Chrome 108.0.0.0,1366x768,1366x768,Start of Day 2,SLS,90,A,Pass,End of Day 1,Pass,NaN,NaN,NaN,Pass,NaN,Pass,NaN,Start of Day 2,NaN,schedule_B,schedule_B,12,6,5,feedback_r,Zone7,timelimit_screen,1999.883,NaN,NaN,,NaN,0,1,0,NaN,NaN,1,NaN,NaN,trial_left,blueBox.png,greenBox.png,blueBox.png,al2_uncon.png,22,11,NaN,NaN,0.85,0.15,1,0,0,0,Stable,Stable,1.126,1.849,1.483,1.689,inexpert
58,1673540935567,12/01/2023 16:28:55,1673540938784,0,12/01/2023 16:28:58,111483,5,task-qrxs,repeat-7g8d#1->-repeat-38fk#1->-repeat-qjz7#1->-repeat-5t6i#1,26348654,BLIND,7766409,NaN,complete,NaN,63c019471dfc66664bd1e86e,computer,Desktop or Laptop,Windows 10,Chrome 108.0.0.0,1366x768,1366x768,Start of Day 2,SLS,90,A,Pass,End of Day 1,Pass,NaN,NaN,NaN,Pass,NaN,Pass,NaN,Start of Day 2,NaN,schedule_B,schedule_B,12,6,6,end,Zone1,timelimit_screen,150,NaN,NaN,,NaN,0,1,0,NaN,NaN,1,NaN,NaN,trial_left,blueBox.png,greenBox.png,blueBox.png,al2_uncon.png,22,11,NaN,NaN,0.85,0.15,1,0,0,0,Stable,Stable,1.126,1.849,1.483,1.689,inexpert
59,1673540936982,12/01/2023 16:28:56,1673540940125,0,12/01/2023 16:29:00,111483,5,task-qrxs,repeat-7g8d#1->-repeat-38fk#1->-repeat-qjz7#1->-repeat-5t6i#1,26348654,BLIND,7766409,NaN,complete,NaN,63c019471dfc66664bd1e86e,computer,Desktop or Laptop,Windows 10,Chrome 108.0.0.0,1366x768,1366x768,Start of Day 2,SLS,90,A,Pass,End of Day 1,Pass,NaN,NaN,NaN,Pass,NaN,Pass,NaN,Start of Day 2,NaN,schedule_B,schedule_B,13,7,1,Screen 1,Zone1,continue_button,1245.30000007153,NaN,NaN,,NaN,0,1,0,NaN,NaN,NaN,NaN,NaN,trial_left,blueBox.png,greenBox.png,blueBox.png,al2_uncon.png,23,12,NaN,NaN,0.85,0.15,1,0,0,0,Stable,Stable,2.361,0.992,0.5,1.975,inexpert
60,1673540937911,12/01/2023 16:28:57,1673540941116,0,12/01/2023 16:29:01,111483,5,task-qrxs,repeat-7g8d#1->-repeat-38fk#1->-repeat-qjz7#1->-repeat-5t6i#1,26348654,BLIND,7766409,NaN,complete,NaN,63c019471dfc66664bd1e86e,computer,Desktop or Laptop,Windows 10,Chrome 108.0.0.0,1366x768,1366x768,Start of Day 2,SLS,90,A,Pass,End of Day 1,Pass,NaN,NaN,NaN,Pass,NaN,Pass,NaN,Start of Day 2,NaN,schedule_B,schedule_B,13,7,2,individual,Zone4,timelimit_screen,999.934999999998,NaN,NaN,,NaN,0,1,0,NaN,NaN,1,NaN,NaN,trial_left,blueBox.png,greenBox.png,blueBox.png,al2_uncon.png,23,12,NaN,NaN,0.85,0.15,1,0,0,0,Stable,Stable,2.361,0.992,0.5,1.975,inexpert
61,1673540939082,12/01/2023 16:28:59,1673540942290,0,12/01/2023 16:29:02,111483,5,task-qrxs,repeat-7g8d#1->-repeat-38fk#1->-repeat-qjz7#1->-repeat-5t6i#1,26348654,BLIND,7766409,NaN,complete,NaN,63c019471dfc66664bd1e86e,computer,Desktop or Laptop,Windows 10,Chrome 108.0.0.0,1366x768,1366x768,Start of Day 2,SLS,90,A,Pass,End of Day 1,Pass,NaN,NaN,NaN,Pass,NaN,Pass,NaN,Start of Day 2,NaN,schedule_B,schedule_B,13,7,3,offer,bluebox,response_button_image,1120,NaN,NaN,blueBox.png,1,1,0,0,NaN,NaN,NaN,NaN,NaN,trial_left,blueBox.png,greenBox.png,blueBox.png,al2_uncon.png,23,12,NaN,NaN,0.85,0.15,1,0,0,0,Stable,Stable,2.361,0.992,0.5,1.975,inexpert
62,1673540941073,12/01/2023 16:29:01,1673540944283,0,12/01/2023 16:29:04,111483,5,task-qrxs,repeat-7g8d#1->-repeat-38fk#1->-repeat-qjz7#1->-repeat-5t6i#1,26348654,BLIND,7766409,NaN,complete,NaN,63c019471dfc66664bd1e86e,computer,Desktop or Laptop,Windows 10,Chrome 108.0.0.0,1366x768,1366x768,Start of Day 2,SLS,90,A,Pass,End of Day 1,Pass,NaN,NaN,NaN,Pass,NaN,Pass,NaN,Start of Day 2,NaN,schedule_B,schedule_B,13,7,5,feedback_r,Zone7,timelimit_screen,1999.905,NaN,NaN,,NaN,0,1,0,NaN,NaN,1,NaN,NaN,trial_left,blueBox.png,greenBox.png,blueBox.png,al2_uncon.png,23,12,NaN,NaN,0.85,0.15,1,0,0,0,Stable,Stable,2.361,0.992,0.5,1.975,inexpert
63,1673540941220,12/01/2023 16:29:01,1673540944432,0,12/01/2023 16:29:04,111483,5,task-qrxs,repeat-7g8d#1->-repeat-38fk#1->-repeat-qjz7#1->-repeat-5t6i#1,26348654,BLIND,7766409,NaN,complete,NaN,63c019471dfc66664bd1e86e,computer,Desktop or Laptop,Windows 10,Chrome 108.0.0.0,1366x768,1366x768,Start of Day 2,SLS,90,A,Pass,End of Day 1,Pass,NaN,NaN,NaN,Pass,NaN,Pass,NaN,Start of Day 2,NaN,schedule_B,schedule_B,13,7,6,end,Zone1,timelimit_screen,149.983999999997,NaN,NaN,,NaN,0,1,0,NaN,NaN,1,NaN,NaN,trial_left,blueBox.png,greenBox.png,blueBox.png,al2_uncon.png,23,12,NaN,NaN,0.85,0.15,1,0,0,0,Stable,Stable,2.361,0.992,0.5,1.975,inexpert
64,1673540941997,12/01/2023 16:29:01,1673540945206,0,12/01/2023 16:29:05,111483,5,task-qrxs,repeat-7g8d#1->-repeat-38fk#1->-repeat-qjz7#1->-repeat-5t6i#1,26348654,BLIND,7766409,NaN,complete,NaN,63c019471dfc66664bd1e86e,computer,Desktop or Laptop,Windows 10,Chrome 108.0.0.0,1366x768,1366x768,Start of Day 2,SLS,90,A,Pass,End of Day 1,Pass,NaN,NaN,NaN,Pass,NaN,Pass,NaN,Start of Day 2,NaN,schedule_B,schedule_B,14,6,1,Screen 1,Zone1,continue_button,678.600000023842,NaN,NaN,,NaN,0,1,0,NaN,NaN,NaN,NaN,NaN,trial_right,blueBox.png,blueBox.png,greenBox.png,al2_uncon.png,24,13,NaN,NaN,0.85,0.15,1,0,0,1,Stable,Stable,1.05,1.95,1.319,1.487,inexpert
65,1673540942991,12/01/2023 16:29:02,1673540946201,0,12/01/2023 16:29:06,111483,5,task-qrxs,repeat-7g8d#1->-repeat-38fk#1->-repeat-qjz7#1->-repeat-5t6i#1,26348654,BLIND,7766409,NaN,complete,NaN,63c019471dfc66664bd1e86e,computer,Desktop or Laptop,Windows 10,Chrome 108.0.0.0,1366x768,1366x768,Start of Day 2,SLS,90,A,Pass,End of Day 1,Pass,NaN,NaN,NaN,Pass,NaN,Pass,NaN,Start of Day 2,NaN,schedule_B,schedule_B,14,6,2,individual,Zone4,timelimit_screen,999.942999999999,NaN,NaN,,NaN,0,1,0,NaN,NaN,1,NaN,NaN,trial_right,blueBox.png,blueBox.png,greenBox.png,al2_uncon.png,24,13,NaN,NaN,0.85,0.15,1,0,0,1,Stable,Stable,1.05,1.95,1.319,1.487,inexpert
66,1673540944099,12/01/2023 16:29:04,1673540947310,0,12/01/2023 16:29:07,111483,5,task-qrxs,repeat-7g8d#1->-repeat-38fk#1->-repeat-qjz7#1->-repeat-5t6i#1,26348654,BLIND,7766409,NaN,complete,NaN,63c019471dfc66664bd1e86e,computer,Desktop or Laptop,Windows 10,Chrome 108.0.0.0,1366x768,1366x768,Start of Day 2,SLS,90,A,Pass,End of Day 1,Pass,NaN,NaN,NaN,Pass,NaN,Pass,NaN,Start of Day 2,NaN,schedule_B,schedule_B,14,6,3,offer,Zone2,response_button_image,1047.20000004768,NaN,NaN,blueBox.png,1,1,0,0,NaN,NaN,NaN,NaN,NaN,trial_right,blueBox.png,blueBox.png,greenBox.png,al2_uncon.png,24,13,NaN,NaN,0.85,0.15,1,0,0,1,Stable,Stable,1.05,1.95,1.319,1.487,inexpert
67,1673540946204,12/01/2023 16:29:06,1673540949316,0,12/01/2023 16:29:09,111483,5,task-qrxs,repeat-7g8d#1->-repeat-38fk#1->-repeat-qjz7#1->-repeat-5t6i#1,26348654,BLIND,7766409,NaN,complete,NaN,63c019471dfc66664bd1e86e,computer,Desktop or Laptop,Windows 10,Chrome 108.0.0.0,1366x768,1366x768,Start of Day 2,SLS,90,A,Pass,End of Day 1,Pass,NaN,NaN,NaN,Pass,NaN,Pass,NaN,Start of Day 2,NaN,schedule_B,schedule_B,14,6,4,feedback_l,Zone7,timelimit_screen,2003.47,NaN,NaN,,NaN,0,1,0,NaN,NaN,1,NaN,NaN,trial_right,blueBox.png,blueBox.png,greenBox.png,al2_uncon.png,24,13,NaN,NaN,0.85,0.15,1,0,0,1,Stable,Stable,1.05,1.95,1.319,1.487,inexpert
68,1673540946360,12/01/2023 16:29:06,1673540949449,0,12/01/2023 16:29:09,111483,5,task-qrxs,repeat-7g8d#1->-repeat-38fk#1->-repeat-qjz7#1->-repeat-5t6i#1,26348654,BLIND,7766409,NaN,complete,NaN,63c019471dfc66664bd1e86e,computer,Desktop or Laptop,Windows 10,Chrome 108.0.0.0,1366x768,1366x768,Start of Day 2,SLS,90,A,Pass,End of Day 1,Pass,NaN,NaN,NaN,Pass,NaN,Pass,NaN,Start of Day 2,NaN,schedule_B,schedule_B,14,6,6,end,Zone1,timelimit_screen,146.512000000002,NaN,NaN,,NaN,0,1,0,NaN,NaN,1,NaN,NaN,trial_right,blueBox.png,blueBox.png,greenBox.png,al2_uncon.png,24,13,NaN,NaN,0.85,0.15,1,0,0,1,Stable,Stable,1.05,1.95,1.319,1.487,inexpert
69,1673540947074,12/01/2023 16:29:07,1673540950293,0,12/01/2023 16:29:10,111483,5,task-qrxs,repeat-7g8d#1->-repeat-38fk#1->-repeat-qjz7#1->-repeat-5t6i#1,26348654,BLIND,7766409,NaN,complete,NaN,63c019471dfc66664bd1e86e,computer,Desktop or Laptop,Windows 10,Chrome 108.0.0.0,1366x768,1366x768,Start of Day 2,SLS,90,A,Pass,End of Day 1,Pass,NaN,NaN,NaN,Pass,NaN,Pass,NaN,Start of Day 2,NaN,schedule_B,schedule_B,15,7,1,Screen 1,Zone1,continue_button,770.299999952316,NaN,NaN,,NaN,0,1,0,NaN,NaN,NaN,NaN,NaN,trial_right,blueBox.png,blueBox.png,greenBox.png,al2_uncon.png,25,14,NaN,NaN,0.85,0.15,1,0,0,1,Stable,Stable,3.395,0.84,0.803,1.252,inexpert
70,1673540948055,12/01/2023 16:29:08,1673540951286,0,12/01/2023 16:29:11,111483,5,task-qrxs,repeat-7g8d#1->-repeat-38fk#1->-repeat-qjz7#1->-repeat-5t6i#1,26348654,BLIND,7766409,NaN,complete,NaN,63c019471dfc66664bd1e86e,computer,Desktop or Laptop,Windows 10,Chrome 108.0.0.0,1366x768,1366x768,Start of Day 2,SLS,90,A,Pass,End of Day 1,Pass,NaN,NaN,NaN,Pass,NaN,Pass,NaN,Start of Day 2,NaN,schedule_B,schedule_B,15,7,2,individual,Zone4,timelimit_screen,999.966,NaN,NaN,,NaN,0,1,0,NaN,NaN,1,NaN,NaN,trial_right,blueBox.png,blueBox.png,greenBox.png,al2_uncon.png,25,14,NaN,NaN,0.85,0.15,1,0,0,1,Stable,Stable,3.395,0.84,0.803,1.252,inexpert
71,1673540949171,12/01/2023 16:29:09,1673540952393,0,12/01/2023 16:29:12,111483,5,task-qrxs,repeat-7g8d#1->-repeat-38fk#1->-repeat-qjz7#1->-repeat-5t6i#1,26348654,BLIND,7766409,NaN,complete,NaN,63c019471dfc66664bd1e86e,computer,Desktop or Laptop,Windows 10,Chrome 108.0.0.0,1366x768,1366x768,Start of Day 2,SLS,90,A,Pass,End of Day 1,Pass,NaN,NaN,NaN,Pass,NaN,Pass,NaN,Start of Day 2,NaN,schedule_B,schedule_B,15,7,3,offer,Zone2,response_button_image,1063.69999992847,NaN,NaN,blueBox.png,1,1,0,0,NaN,NaN,NaN,NaN,NaN,trial_right,blueBox.png,blueBox.png,greenBox.png,al2_uncon.png,25,14,NaN,NaN,0.85,0.15,1,0,0,1,Stable,Stable,3.395,0.84,0.803,1.252,inexpert
72,1673540951156,12/01/2023 16:29:11,1673540954384,0,12/01/2023 16:29:14,111483,5,task-qrxs,repeat-7g8d#1->-repeat-38fk#1->-repeat-qjz7#1->-repeat-5t6i#1,26348654,BLIND,7766409,NaN,complete,NaN,63c019471dfc66664bd1e86e,computer,Desktop or Laptop,Windows 10,Chrome 108.0.0.0,1366x768,1366x768,Start of Day 2,SLS,90,A,Pass,End of Day 1,Pass,NaN,NaN,NaN,Pass,NaN,Pass,NaN,Start of Day 2,NaN,schedule_B,schedule_B,15,7,4,feedback_l,Zone7,timelimit_screen,2003.12300000001,NaN,NaN,,NaN,0,1,0,NaN,NaN,1,NaN,NaN,trial_right,blueBox.png,blueBox.png,greenBox.png,al2_uncon.png,25,14,NaN,NaN,0.85,0.15,1,0,0,1,Stable,Stable,3.395,0.84,0.803,1.252,inexpert
73,1673540951319,12/01/2023 16:29:11,1673540954532,0,12/01/2023 16:29:14,111483,5,task-qrxs,repeat-7g8d#1->-repeat-38fk#1->-repeat-qjz7#1->-repeat-5t6i#1,26348654,BLIND,7766409,NaN,complete,NaN,63c019471dfc66664bd1e86e,computer,Desktop or Laptop,Windows 10,Chrome 108.0.0.0,1366x768,1366x768,Start of Day 2,SLS,90,A,Pass,End of Day 1,Pass,NaN,NaN,NaN,Pass,NaN,Pass,NaN,Start of Day 2,NaN,schedule_B,schedule_B,15,7,6,end,Zone1,timelimit_screen,146.773000000001,NaN,NaN,,NaN,0,1,0,NaN,NaN,1,NaN,NaN,trial_right,blueBox.png,blueBox.png,greenBox.png,al2_uncon.png,25,14,NaN,NaN,0.85,0.15,1,0,0,1,Stable,Stable,3.395,0.84,0.803,1.252,inexpert
74,1673540955116,12/01/2023 16:29:15,1673540958325,0,12/01/2023 16:29:18,111483,5,task-qrxs,repeat-7g8d#1->-repeat-38fk#1->-repeat-qjz7#1->-repeat-5t6i#1,26348654,BLIND,7766409,NaN,complete,NaN,63c019471dfc66664bd1e86e,computer,Desktop or Laptop,Windows 10,Chrome 108.0.0.0,1366x768,1366x768,Start of Day 2,SLS,90,A,Pass,End of Day 1,Pass,NaN,NaN,NaN,Pass,NaN,Pass,NaN,Start of Day 2,NaN,schedule_B,schedule_B,16,8,1,Screen 1,Zone1,continue_button,3740.5,NaN,NaN,,NaN,0,1,0,NaN,NaN,NaN,NaN,NaN,trial_left,blueBox.png,blueBox.png,greenBox.png,al2_uncon.png,26,15,NaN,NaN,0.85,0.15,1,1,1,1,Stable,Stable,2.689,1.067,1.697,2.731,inexpert
75,1673540956193,12/01/2023 16:29:16,1673540959315,0,12/01/2023 16:29:19,111483,5,task-qrxs,repeat-7g8d#1->-repeat-38fk#1->-repeat-qjz7#1->-repeat-5t6i#1,26348654,BLIND,7766409,NaN,complete,NaN,63c019471dfc66664bd1e86e,computer,Desktop or Laptop,Windows 10,Chrome 108.0.0.0,1366x768,1366x768,Start of Day 2,SLS,90,A,Pass,End of Day 1,Pass,NaN,NaN,NaN,Pass,NaN,Pass,NaN,Start of Day 2,NaN,schedule_B,schedule_B,16,8,2,individual,Zone4,timelimit_screen,999.996999999988,NaN,NaN,,NaN,0,1,0,NaN,NaN,1,NaN,NaN,trial_left,blueBox.png,blueBox.png,greenBox.png,al2_uncon.png,26,15,NaN,NaN,0.85,0.15,1,1,1,1,Stable,Stable,2.689,1.067,1.697,2.731,inexpert
76,1673540957304,12/01/2023 16:29:17,1673540960527,0,12/01/2023 16:29:20,111483,5,task-qrxs,repeat-7g8d#1->-repeat-38fk#1->-repeat-qjz7#1->-repeat-5t6i#1,26348654,BLIND,7766409,NaN,complete,NaN,63c019471dfc66664bd1e86e,computer,Desktop or Laptop,Windows 10,Chrome 108.0.0.0,1366x768,1366x768,Start of Day 2,SLS,90,A,Pass,End of Day 1,Pass,NaN,NaN,NaN,Pass,NaN,Pass,NaN,Start of Day 2,NaN,schedule_B,schedule_B,16,8,3,offer,bluebox,response_button_image,1148.10000002384,NaN,NaN,greenBox.png,1,0,1,0,NaN,NaN,NaN,NaN,NaN,trial_left,blueBox.png,blueBox.png,greenBox.png,al2_uncon.png,26,15,NaN,NaN,0.85,0.15,1,1,1,1,Stable,Stable,2.689,1.067,1.697,2.731,inexpert
77,1673540959302,12/01/2023 16:29:19,1673540962515,0,12/01/2023 16:29:22,111483,5,task-qrxs,repeat-7g8d#1->-repeat-38fk#1->-repeat-qjz7#1->-repeat-5t6i#1,26348654,BLIND,7766409,NaN,complete,NaN,63c019471dfc66664bd1e86e,computer,Desktop or Laptop,Windows 10,Chrome 108.0.0.0,1366x768,1366x768,Start of Day 2,SLS,90,A,Pass,End of Day 1,Pass,NaN,NaN,NaN,Pass,NaN,Pass,NaN,Start of Day 2,NaN,schedule_B,schedule_B,16,8,5,feedback_r,Zone7,timelimit_screen,1999.90699999999,NaN,NaN,,NaN,0,1,0,NaN,NaN,1,NaN,NaN,trial_left,blueBox.png,blueBox.png,greenBox.png,al2_uncon.png,26,15,NaN,NaN,0.85,0.15,1,1,1,1,Stable,Stable,2.689,1.067,1.697,2.731,inexpert
78,1673540959449,12/01/2023 16:29:19,1673540962666,0,12/01/2023 16:29:22,111483,5,task-qrxs,repeat-7g8d#1->-repeat-38fk#1->-repeat-qjz7#1->-repeat-5t6i#1,26348654,BLIND,7766409,NaN,complete,NaN,63c019471dfc66664bd1e86e,computer,Desktop or Laptop,Windows 10,Chrome 108.0.0.0,1366x768,1366x768,Start of Day 2,SLS,90,A,Pass,End of Day 1,Pass,NaN,NaN,NaN,Pass,NaN,Pass,NaN,Start of Day 2,NaN,schedule_B,schedule_B,16,8,6,end,Zone1,timelimit_screen,149.98000000001,NaN,NaN,,NaN,0,1,0,NaN,NaN,1,NaN,NaN,trial_left,blueBox.png,blueBox.png,greenBox.png,al2_uncon.png,26,15,NaN,NaN,0.85,0.15,1,1,1,1,Stable,Stable,2.689,1.067,1.697,2.731,inexpert
79,1673540960306,12/01/2023 16:29:20,1673540963523,0,12/01/2023 16:29:23,111483,5,task-qrxs,repeat-7g8d#1->-repeat-38fk#1->-repeat-qjz7#1->-repeat-5t6i#1,26348654,BLIND,7766409,NaN,complete,NaN,63c019471dfc66664bd1e86e,computer,Desktop or Laptop,Windows 10,Chrome 108.0.0.0,1366x768,1366x768,Start of Day 2,SLS,90,A,Pass,End of Day 1,Pass,NaN,NaN,NaN,Pass,NaN,Pass,NaN,Start of Day 2,NaN,schedule_B,schedule_B,17,9,1,Screen 1,Zone1,continue_button,777,NaN,NaN,,NaN,0,1,0,NaN,NaN,NaN,NaN,NaN,trial_left,greenBox.png,greenBox.png,blueBox.png,al2_uncon.png,27,16,NaN,NaN,0.15,0.15,0,1,0,0,Stable,Stable,1.378,0.689,0.878,2.076,inexpert
80,1673540961302,12/01/2023 16:29:21,1673540964515,0,12/01/2023 16:29:24,111483,5,task-qrxs,repeat-7g8d#1->-repeat-38fk#1->-repeat-qjz7#1->-repeat-5t6i#1,26348654,BLIND,7766409,NaN,complete,NaN,63c019471dfc66664bd1e86e,computer,Desktop or Laptop,Windows 10,Chrome 108.0.0.0,1366x768,1366x768,Start of Day 2,SLS,90,A,Pass,End of Day 1,Pass,NaN,NaN,NaN,Pass,NaN,Pass,NaN,Start of Day 2,NaN,schedule_B,schedule_B,17,9,2,individual,Zone4,timelimit_screen,999.936999999991,NaN,NaN,,NaN,0,1,0,NaN,NaN,1,NaN,NaN,trial_left,greenBox.png,greenBox.png,blueBox.png,al2_uncon.png,27,16,NaN,NaN,0.15,0.15,0,1,0,0,Stable,Stable,1.378,0.689,0.878,2.076,inexpert
81,1673540962958,12/01/2023 16:29:22,1673540966173,0,12/01/2023 16:29:26,111483,5,task-qrxs,repeat-7g8d#1->-repeat-38fk#1->-repeat-qjz7#1->-repeat-5t6i#1,26348654,BLIND,7766409,NaN,complete,NaN,63c019471dfc66664bd1e86e,computer,Desktop or Laptop,Windows 10,Chrome 108.0.0.0,1366x768,1366x768,Start of Day 2,SLS,90,A,Pass,End of Day 1,Pass,NaN,NaN,NaN,Pass,NaN,Pass,NaN,Start of Day 2,NaN,schedule_B,schedule_B,17,9,3,offer,bluebox,response_button_image,1636.39999997616,NaN,NaN,blueBox.png,1,0,1,0,NaN,NaN,NaN,NaN,NaN,trial_left,greenBox.png,greenBox.png,blueBox.png,al2_uncon.png,27,16,NaN,NaN,0.15,0.15,0,1,0,0,Stable,Stable,1.378,0.689,0.878,2.076,inexpert
82,1673540964944,12/01/2023 16:29:24,1673540968165,0,12/01/2023 16:29:28,111483,5,task-qrxs,repeat-7g8d#1->-repeat-38fk#1->-repeat-qjz7#1->-repeat-5t6i#1,26348654,BLIND,7766409,NaN,complete,NaN,63c019471dfc66664bd1e86e,computer,Desktop or Laptop,Windows 10,Chrome 108.0.0.0,1366x768,1366x768,Start of Day 2,SLS,90,A,Pass,End of Day 1,Pass,NaN,NaN,NaN,Pass,NaN,Pass,NaN,Start of Day 2,NaN,schedule_B,schedule_B,17,9,5,feedback_r,Zone7,timelimit_screen,2000.47600000001,NaN,NaN,,NaN,0,1,0,NaN,NaN,1,NaN,NaN,trial_left,greenBox.png,greenBox.png,blueBox.png,al2_uncon.png,27,16,NaN,NaN,0.15,0.15,0,1,0,0,Stable,Stable,1.378,0.689,0.878,2.076,inexpert
83,1673540965080,12/01/2023 16:29:25,1673540968315,0,12/01/2023 16:29:28,111483,5,task-qrxs,repeat-7g8d#1->-repeat-38fk#1->-repeat-qjz7#1->-repeat-5t6i#1,26348654,BLIND,7766409,NaN,complete,NaN,63c019471dfc66664bd1e86e,computer,Desktop or Laptop,Windows 10,Chrome 108.0.0.0,1366x768,1366x768,Start of Day 2,SLS,90,A,Pass,End of Day 1,Pass,NaN,NaN,NaN,Pass,NaN,Pass,NaN,Start of Day 2,NaN,schedule_B,schedule_B,17,9,6,end,Zone1,timelimit_screen,149.414999999994,NaN,NaN,,NaN,0,1,0,NaN,NaN,1,NaN,NaN,trial_left,greenBox.png,greenBox.png,blueBox.png,al2_uncon.png,27,16,NaN,NaN,0.15,0.15,0,1,0,0,Stable,Stable,1.378,0.689,0.878,2.076,inexpert
84,1673540965851,12/01/2023 16:29:25,1673540969070,0,12/01/2023 16:29:29,111483,5,task-qrxs,repeat-7g8d#1->-repeat-38fk#1->-repeat-qjz7#1->-repeat-5t6i#1,26348654,BLIND,7766409,NaN,complete,NaN,63c019471dfc66664bd1e86e,computer,Desktop or Laptop,Windows 10,Chrome 108.0.0.0,1366x768,1366x768,Start of Day 2,SLS,90,A,Pass,End of Day 1,Pass,NaN,NaN,NaN,Pass,NaN,Pass,NaN,Start of Day 2,NaN,schedule_B,schedule_B,18,8,1,Screen 1,Zone1,continue_button,717.400000095367,NaN,NaN,,NaN,0,1,0,NaN,NaN,NaN,NaN,NaN,trial_right,greenBox.png,blueBox.png,greenBox.png,al2_uncon.png,28,17,NaN,NaN,0.15,0.15,0,1,0,1,Stable,Stable,2.714,0.739,1.975,1.134,inexpert
85,1673540966952,12/01/2023 16:29:26,1673540970066,0,12/01/2023 16:29:30,111483,5,task-qrxs,repeat-7g8d#1->-repeat-38fk#1->-repeat-qjz7#1->-repeat-5t6i#1,26348654,BLIND,7766409,NaN,complete,NaN,63c019471dfc66664bd1e86e,computer,Desktop or Laptop,Windows 10,Chrome 108.0.0.0,1366x768,1366x768,Start of Day 2,SLS,90,A,Pass,End of Day 1,Pass,NaN,NaN,NaN,Pass,NaN,Pass,NaN,Start of Day 2,NaN,schedule_B,schedule_B,18,8,2,individual,Zone4,timelimit_screen,999.356,NaN,NaN,,NaN,0,1,0,NaN,NaN,1,NaN,NaN,trial_right,greenBox.png,blueBox.png,greenBox.png,al2_uncon.png,28,17,NaN,NaN,0.15,0.15,0,1,0,1,Stable,Stable,2.714,0.739,1.975,1.134,inexpert
86,1673540967938,12/01/2023 16:29:27,1673540971143,0,12/01/2023 16:29:31,111483,5,task-qrxs,repeat-7g8d#1->-repeat-38fk#1->-repeat-qjz7#1->-repeat-5t6i#1,26348654,BLIND,7766409,NaN,complete,NaN,63c019471dfc66664bd1e86e,computer,Desktop or Laptop,Windows 10,Chrome 108.0.0.0,1366x768,1366x768,Start of Day 2,SLS,90,A,Pass,End of Day 1,Pass,NaN,NaN,NaN,Pass,NaN,Pass,NaN,Start of Day 2,NaN,schedule_B,schedule_B,18,8,3,offer,Zone3,response_button_image,1024.39999997616,NaN,NaN,greenBox.png,1,1,0,0,NaN,NaN,NaN,NaN,NaN,trial_right,greenBox.png,blueBox.png,greenBox.png,al2_uncon.png,28,17,NaN,NaN,0.15,0.15,0,1,0,1,Stable,Stable,2.714,0.739,1.975,1.134,inexpert
87,1673540969919,12/01/2023 16:29:29,1673540973134,0,12/01/2023 16:29:33,111483,5,task-qrxs,repeat-7g8d#1->-repeat-38fk#1->-repeat-qjz7#1->-repeat-5t6i#1,26348654,BLIND,7766409,NaN,complete,NaN,63c019471dfc66664bd1e86e,computer,Desktop or Laptop,Windows 10,Chrome 108.0.0.0,1366x768,1366x768,Start of Day 2,SLS,90,A,Pass,End of Day 1,Pass,NaN,NaN,NaN,Pass,NaN,Pass,NaN,Start of Day 2,NaN,schedule_B,schedule_B,18,8,5,feedback_r,Zone7,timelimit_screen,1999.92000000001,NaN,NaN,,NaN,0,1,0,NaN,NaN,1,NaN,NaN,trial_right,greenBox.png,blueBox.png,greenBox.png,al2_uncon.png,28,17,NaN,NaN,0.15,0.15,0,1,0,1,Stable,Stable,2.714,0.739,1.975,1.134,inexpert
88,1673540970076,12/01/2023 16:29:30,1673540973288,0,12/01/2023 16:29:33,111483,5,task-qrxs,repeat-7g8d#1->-repeat-38fk#1->-repeat-qjz7#1->-repeat-5t6i#1,26348654,BLIND,7766409,NaN,complete,NaN,63c019471dfc66664bd1e86e,computer,Desktop or Laptop,Windows 10,Chrome 108.0.0.0,1366x768,1366x768,Start of Day 2,SLS,90,A,Pass,End of Day 1,Pass,NaN,NaN,NaN,Pass,NaN,Pass,NaN,Start of Day 2,NaN,schedule_B,schedule_B,18,8,6,end,Zone1,timelimit_screen,149.814999999988,NaN,NaN,,NaN,0,1,0,NaN,NaN,1,NaN,NaN,trial_right,greenBox.png,blueBox.png,greenBox.png,al2_uncon.png,28,17,NaN,NaN,0.15,0.15,0,1,0,1,Stable,Stable,2.714,0.739,1.975,1.134,inexpert
89,1673540970924,12/01/2023 16:29:30,1673540974146,0,12/01/2023 16:29:34,111483,5,task-qrxs,repeat-7g8d#1->-repeat-38fk#1->-repeat-qjz7#1->-repeat-5t6i#1,26348654,BLIND,7766409,NaN,complete,NaN,63c019471dfc66664bd1e86e,computer,Desktop or Laptop,Windows 10,Chrome 108.0.0.0,1366x768,1366x768,Start of Day 2,SLS,90,A,Pass,End of Day 1,Pass,NaN,NaN,NaN,Pass,NaN,Pass,NaN,Start of Day 2,NaN,schedule_B,schedule_B,19,9,1,Screen 1,Zone1,continue_button,824.700000047684,NaN,NaN,,NaN,0,1,0,NaN,NaN,NaN,NaN,NaN,trial_right,greenBox.png,greenBox.png,blueBox.png,al2_uncon.png,29,18,NaN,NaN,0.15,0.15,0,0,1,0,Stable,Stable,3.874,0.676,1.496,1.639,inexpert
90,1673540971920,12/01/2023 16:29:31,1673540975132,0,12/01/2023 16:29:35,111483,5,task-qrxs,repeat-7g8d#1->-repeat-38fk#1->-repeat-qjz7#1->-repeat-5t6i#1,26348654,BLIND,7766409,NaN,complete,NaN,63c019471dfc66664bd1e86e,computer,Desktop or Laptop,Windows 10,Chrome 108.0.0.0,1366x768,1366x768,Start of Day 2,SLS,90,A,Pass,End of Day 1,Pass,NaN,NaN,NaN,Pass,NaN,Pass,NaN,Start of Day 2,NaN,schedule_B,schedule_B,19,9,2,individual,Zone4,timelimit_screen,999.842000000004,NaN,NaN,,NaN,0,1,0,NaN,NaN,1,NaN,NaN,trial_right,greenBox.png,greenBox.png,blueBox.png,al2_uncon.png,29,18,NaN,NaN,0.15,0.15,0,0,1,0,Stable,Stable,3.874,0.676,1.496,1.639,inexpert
91,1673540972957,12/01/2023 16:29:32,1673540976170,0,12/01/2023 16:29:36,111483,5,task-qrxs,repeat-7g8d#1->-repeat-38fk#1->-repeat-qjz7#1->-repeat-5t6i#1,26348654,BLIND,7766409,NaN,complete,NaN,63c019471dfc66664bd1e86e,computer,Desktop or Laptop,Windows 10,Chrome 108.0.0.0,1366x768,1366x768,Start of Day 2,SLS,90,A,Pass,End of Day 1,Pass,NaN,NaN,NaN,Pass,NaN,Pass,NaN,Start of Day 2,NaN,schedule_B,schedule_B,19,9,3,offer,Zone3,response_button_image,1009.80000007153,NaN,NaN,blueBox.png,1,0,1,0,NaN,NaN,NaN,NaN,NaN,trial_right,greenBox.png,greenBox.png,blueBox.png,al2_uncon.png,29,18,NaN,NaN,0.15,0.15,0,0,1,0,Stable,Stable,3.874,0.676,1.496,1.639,inexpert
92,1673540974947,12/01/2023 16:29:34,1673540978164,0,12/01/2023 16:29:38,111483,5,task-qrxs,repeat-7g8d#1->-repeat-38fk#1->-repeat-qjz7#1->-repeat-5t6i#1,26348654,BLIND,7766409,NaN,complete,NaN,63c019471dfc66664bd1e86e,computer,Desktop or Laptop,Windows 10,Chrome 108.0.0.0,1366x768,1366x768,Start of Day 2,SLS,90,A,Pass,End of Day 1,Pass,NaN,NaN,NaN,Pass,NaN,Pass,NaN,Start of Day 2,NaN,schedule_B,schedule_B,19,9,5,feedback_r,Zone7,timelimit_screen,1999.49099999999,NaN,NaN,,NaN,0,1,0,NaN,NaN,1,NaN,NaN,trial_right,greenBox.png,greenBox.png,blueBox.png,al2_uncon.png,29,18,NaN,NaN,0.15,0.15,0,0,1,0,Stable,Stable,3.874,0.676,1.496,1.639,inexpert
93,1673540975092,12/01/2023 16:29:35,1673540978314,0,12/01/2023 16:29:38,111483,5,task-qrxs,repeat-7g8d#1->-repeat-38fk#1->-repeat-qjz7#1->-repeat-5t6i#1,26348654,BLIND,7766409,NaN,complete,NaN,63c019471dfc66664bd1e86e,computer,Desktop or Laptop,Windows 10,Chrome 108.0.0.0,1366x768,1366x768,Start of Day 2,SLS,90,A,Pass,End of Day 1,Pass,NaN,NaN,NaN,Pass,NaN,Pass,NaN,Start of Day 2,NaN,schedule_B,schedule_B,19,9,6,end,Zone1,timelimit_screen,149.98000000001,NaN,NaN,,NaN,0,1,0,NaN,NaN,1,NaN,NaN,trial_right,greenBox.png,greenBox.png,blueBox.png,al2_uncon.png,29,18,NaN,NaN,0.15,0.15,0,0,1,0,Stable,Stable,3.874,0.676,1.496,1.639,inexpert
94,1673540975756,12/01/2023 16:29:35,1673540978973,0,12/01/2023 16:29:38,111483,5,task-qrxs,repeat-7g8d#1->-repeat-38fk#1->-repeat-qjz7#1->-repeat-5t6i#1,26348654,BLIND,7766409,NaN,complete,NaN,63c019471dfc66664bd1e86e,computer,Desktop or Laptop,Windows 10,Chrome 108.0.0.0,1366x768,1366x768,Start of Day 2,SLS,90,A,Pass,End of Day 1,Pass,NaN,NaN,NaN,Pass,NaN,Pass,NaN,Start of Day 2,NaN,schedule_B,schedule_B,20,10,1,Screen 1,Zone1,continue_button,600.399999976158,NaN,NaN,,NaN,0,1,0,NaN,NaN,NaN,NaN,NaN,trial_left,greenBox.png,greenBox.png,blueBox.png,al2_uncon.png,30,19,NaN,NaN,0.15,0.15,0,1,0,0,Stable,Stable,1.252,1.193,0.853,2.681,inexpert
95,1673540976861,12/01/2023 16:29:36,1673540979968,0,12/01/2023 16:29:39,111483,5,task-qrxs,repeat-7g8d#1->-repeat-38fk#1->-repeat-qjz7#1->-repeat-5t6i#1,26348654,BLIND,7766409,NaN,complete,NaN,63c019471dfc66664bd1e86e,computer,Desktop or Laptop,Windows 10,Chrome 108.0.0.0,1366x768,1366x768,Start of Day 2,SLS,90,A,Pass,End of Day 1,Pass,NaN,NaN,NaN,Pass,NaN,Pass,NaN,Start of Day 2,NaN,schedule_B,schedule_B,20,10,2,individual,Zone4,timelimit_screen,1000.02099999999,NaN,NaN,,NaN,0,1,0,NaN,NaN,1,NaN,NaN,trial_left,greenBox.png,greenBox.png,blueBox.png,al2_uncon.png,30,19,NaN,NaN,0.15,0.15,0,1,0,0,Stable,Stable,1.252,1.193,0.853,2.681,inexpert
96,1673540977888,12/01/2023 16:29:37,1673540981091,0,12/01/2023 16:29:41,111483,5,task-qrxs,repeat-7g8d#1->-repeat-38fk#1->-repeat-qjz7#1->-repeat-5t6i#1,26348654,BLIND,7766409,NaN,complete,NaN,63c019471dfc66664bd1e86e,computer,Desktop or Laptop,Windows 10,Chrome 108.0.0.0,1366x768,1366x768,Start of Day 2,SLS,90,A,Pass,End of Day 1,Pass,NaN,NaN,NaN,Pass,NaN,Pass,NaN,Start of Day 2,NaN,schedule_B,schedule_B,20,10,3,offer,bluebox,response_button_image,1062.89999997616,NaN,NaN,blueBox.png,1,0,1,0,NaN,NaN,NaN,NaN,NaN,trial_left,greenBox.png,greenBox.png,blueBox.png,al2_uncon.png,30,19,NaN,NaN,0.15,0.15,0,1,0,0,Stable,Stable,1.252,1.193,0.853,2.681,inexpert
97,1673540979860,12/01/2023 16:29:39,1673540983083,0,12/01/2023 16:29:43,111483,5,task-qrxs,repeat-7g8d#1->-repeat-38fk#1->-repeat-qjz7#1->-repeat-5t6i#1,26348654,BLIND,7766409,NaN,complete,NaN,63c019471dfc66664bd1e86e,computer,Desktop or Laptop,Windows 10,Chrome 108.0.0.0,1366x768,1366x768,Start of Day 2,SLS,90,A,Pass,End of Day 1,Pass,NaN,NaN,NaN,Pass,NaN,Pass,NaN,Start of Day 2,NaN,schedule_B,schedule_B,20,10,5,feedback_r,Zone7,timelimit_screen,1999.88399999999,NaN,NaN,,NaN,0,1,0,NaN,NaN,1,NaN,NaN,trial_left,greenBox.png,greenBox.png,blueBox.png,al2_uncon.png,30,19,NaN,NaN,0.15,0.15,0,1,0,0,Stable,Stable,1.252,1.193,0.853,2.681,inexpert
98,1673540980008,12/01/2023 16:29:40,1673540983233,0,12/01/2023 16:29:43,111483,5,task-qrxs,repeat-7g8d#1->-repeat-38fk#1->-repeat-qjz7#1->-repeat-5t6i#1,26348654,BLIND,7766409,NaN,complete,NaN,63c019471dfc66664bd1e86e,computer,Desktop or Laptop,Windows 10,Chrome 108.0.0.0,1366x768,1366x768,Start of Day 2,SLS,90,A,Pass,End of Day 1,Pass,NaN,NaN,NaN,Pass,NaN,Pass,NaN,Start of Day 2,NaN,schedule_B,schedule_B,20,10,6,end,Zone1,timelimit_screen,149.90800000001,NaN,NaN,,NaN,0,1,0,NaN,NaN,1,NaN,NaN,trial_left,greenBox.png,greenBox.png,blueBox.png,al2_uncon.png,30,19,NaN,NaN,0.15,0.15,0,1,0,0,Stable,Stable,1.252,1.193,0.853,2.681,inexpert
99,1673540983069,12/01/2023 16:29:43,1673540986285,0,12/01/2023 16:29:46,111483,5,task-qrxs,repeat-7g8d#1->-repeat-38fk#1->-repeat-qjz7#1->-repeat-5t6i#1,26348654,BLIND,7766409,NaN,complete,NaN,63c019471dfc66664bd1e86e,computer,Desktop or Laptop,Windows 10,Chrome 108.0.0.0,1366x768,1366x768,Start of Day 2,SLS,90,A,Pass,End of Day 1,Pass,NaN,NaN,NaN,Pass,NaN,Pass,NaN,Start of Day 2,NaN,schedule_B,schedule_B,21,10,1,Screen 1,Zone1,continue_button,2968.5,NaN,NaN,,NaN,0,1,0,NaN,NaN,NaN,NaN,NaN,trial_right,greenBox.png,greenBox.png,blueBox.png,al2_uncon.png,41,20,NaN,NaN,0.15,0.15,0,0,1,0,Stable,Stable,3.521,1.723,1.37,1.655,inexpert
100,1673540984044,12/01/2023 16:29:44,1673540987267,0,12/01/2023 16:29:47,111483,5,task-qrxs,repeat-7g8d#1->-repeat-38fk#1->-repeat-qjz7#1->-repeat-5t6i#1,26348654,BLIND,7766409,NaN,complete,NaN,63c019471dfc66664bd1e86e,computer,Desktop or Laptop,Windows 10,Chrome 108.0.0.0,1366x768,1366x768,Start of Day 2,SLS,90,A,Pass,End of Day 1,Pass,NaN,NaN,NaN,Pass,NaN,Pass,NaN,Start of Day 2,NaN,schedule_B,schedule_B,21,10,2,individual,Zone4,timelimit_screen,1000.08,NaN,NaN,,NaN,0,1,0,NaN,NaN,1,NaN,NaN,trial_right,greenBox.png,greenBox.png,blueBox.png,al2_uncon.png,41,20,NaN,NaN,0.15,0.15,0,0,1,0,Stable,Stable,3.521,1.723,1.37,1.655,inexpert
101,1673540985746,12/01/2023 16:29:45,1673540988968,0,12/01/2023 16:29:48,111483,5,task-qrxs,repeat-7g8d#1->-repeat-38fk#1->-repeat-qjz7#1->-repeat-5t6i#1,26348654,BLIND,7766409,NaN,complete,NaN,63c019471dfc66664bd1e86e,computer,Desktop or Laptop,Windows 10,Chrome 108.0.0.0,1366x768,1366x768,Start of Day 2,SLS,90,A,Pass,End of Day 1,Pass,NaN,NaN,NaN,Pass,NaN,Pass,NaN,Start of Day 2,NaN,schedule_B,schedule_B,21,10,3,offer,Zone3,response_button_image,1663.60000002384,NaN,NaN,blueBox.png,1,0,1,0,NaN,NaN,NaN,NaN,NaN,trial_right,greenBox.png,greenBox.png,blueBox.png,al2_uncon.png,41,20,NaN,NaN,0.15,0.15,0,0,1,0,Stable,Stable,3.521,1.723,1.37,1.655,inexpert
102,1673540987840,12/01/2023 16:29:47,1673540990950,0,12/01/2023 16:29:50,111483,5,task-qrxs,repeat-7g8d#1->-repeat-38fk#1->-repeat-qjz7#1->-repeat-5t6i#1,26348654,BLIND,7766409,NaN,complete,NaN,63c019471dfc66664bd1e86e,computer,Desktop or Laptop,Windows 10,Chrome 108.0.0.0,1366x768,1366x768,Start of Day 2,SLS,90,A,Pass,End of Day 1,Pass,NaN,NaN,NaN,Pass,NaN,Pass,NaN,Start of Day 2,NaN,schedule_B,schedule_B,21,10,5,feedback_r,Zone7,timelimit_screen,1999.906,NaN,NaN,,NaN,0,1,0,NaN,NaN,1,NaN,NaN,trial_right,greenBox.png,greenBox.png,blueBox.png,al2_uncon.png,41,20,NaN,NaN,0.15,0.15,0,0,1,0,Stable,Stable,3.521,1.723,1.37,1.655,inexpert
103,1673540987998,12/01/2023 16:29:47,1673540991100,0,12/01/2023 16:29:51,111483,5,task-qrxs,repeat-7g8d#1->-repeat-38fk#1->-repeat-qjz7#1->-repeat-5t6i#1,26348654,BLIND,7766409,NaN,complete,NaN,63c019471dfc66664bd1e86e,computer,Desktop or Laptop,Windows 10,Chrome 108.0.0.0,1366x768,1366x768,Start of Day 2,SLS,90,A,Pass,End of Day 1,Pass,NaN,NaN,NaN,Pass,NaN,Pass,NaN,Start of Day 2,NaN,schedule_B,schedule_B,21,10,6,end,Zone1,timelimit_screen,150.084000000003,NaN,NaN,,NaN,0,1,0,NaN,NaN,1,NaN,NaN,trial_right,greenBox.png,greenBox.png,blueBox.png,al2_uncon.png,41,20,NaN,NaN,0.15,0.15,0,0,1,0,Stable,Stable,3.521,1.723,1.37,1.655,inexpert
104,1673540988884,12/01/2023 16:29:48,1673540992096,0,12/01/2023 16:29:52,111483,5,task-qrxs,repeat-7g8d#1->-repeat-38fk#1->-repeat-qjz7#1->-repeat-5t6i#1,26348654,BLIND,7766409,NaN,complete,NaN,63c019471dfc66664bd1e86e,computer,Desktop or Laptop,Windows 10,Chrome 108.0.0.0,1366x768,1366x768,Start of Day 2,SLS,90,A,Pass,End of Day 1,Pass,NaN,NaN,NaN,Pass,NaN,Pass,NaN,Start of Day 2,NaN,schedule_B,schedule_B,22,11,1,Screen 1,Zone1,continue_button,906.199999928474,NaN,NaN,,NaN,0,1,0,NaN,NaN,NaN,NaN,NaN,trial_left,blueBox.png,blueBox.png,greenBox.png,al2_uncon.png,42,21,NaN,NaN,0.85,0.15,1,1,1,1,Stable,Stable,2.336,0.651,1.685,2.882,inexpert
105,1673540989857,12/01/2023 16:29:49,1673540993082,0,12/01/2023 16:29:53,111483,5,task-qrxs,repeat-7g8d#1->-repeat-38fk#1->-repeat-qjz7#1->-repeat-5t6i#1,26348654,BLIND,7766409,NaN,complete,NaN,63c019471dfc66664bd1e86e,computer,Desktop or Laptop,Windows 10,Chrome 108.0.0.0,1366x768,1366x768,Start of Day 2,SLS,90,A,Pass,End of Day 1,Pass,NaN,NaN,NaN,Pass,NaN,Pass,NaN,Start of Day 2,NaN,schedule_B,schedule_B,22,11,2,individual,Zone4,timelimit_screen,999.953999999998,NaN,NaN,,NaN,0,1,0,NaN,NaN,1,NaN,NaN,trial_left,blueBox.png,blueBox.png,greenBox.png,al2_uncon.png,42,21,NaN,NaN,0.85,0.15,1,1,1,1,Stable,Stable,2.336,0.651,1.685,2.882,inexpert
106,1673540990956,12/01/2023 16:29:50,1673540994167,0,12/01/2023 16:29:54,111483,5,task-qrxs,repeat-7g8d#1->-repeat-38fk#1->-repeat-qjz7#1->-repeat-5t6i#1,26348654,BLIND,7766409,NaN,complete,NaN,63c019471dfc66664bd1e86e,computer,Desktop or Laptop,Windows 10,Chrome 108.0.0.0,1366x768,1366x768,Start of Day 2,SLS,90,A,Pass,End of Day 1,Pass,NaN,NaN,NaN,Pass,NaN,Pass,NaN,Start of Day 2,NaN,schedule_B,schedule_B,22,11,3,offer,bluebox,response_button_image,1029.89999997616,NaN,NaN,greenBox.png,1,0,1,0,NaN,NaN,NaN,NaN,NaN,trial_left,blueBox.png,blueBox.png,greenBox.png,al2_uncon.png,42,21,NaN,NaN,0.85,0.15,1,1,1,1,Stable,Stable,2.336,0.651,1.685,2.882,inexpert
107,1673540992936,12/01/2023 16:29:52,1673540996149,0,12/01/2023 16:29:56,111483,5,task-qrxs,repeat-7g8d#1->-repeat-38fk#1->-repeat-qjz7#1->-repeat-5t6i#1,26348654,BLIND,7766409,NaN,complete,NaN,63c019471dfc66664bd1e86e,computer,Desktop or Laptop,Windows 10,Chrome 108.0.0.0,1366x768,1366x768,Start of Day 2,SLS,90,A,Pass,End of Day 1,Pass,NaN,NaN,NaN,Pass,NaN,Pass,NaN,Start of Day 2,NaN,schedule_B,schedule_B,22,11,5,feedback_r,Zone7,timelimit_screen,1999.90800000001,NaN,NaN,,NaN,0,1,0,NaN,NaN,1,NaN,NaN,trial_left,blueBox.png,blueBox.png,greenBox.png,al2_uncon.png,42,21,NaN,NaN,0.85,0.15,1,1,1,1,Stable,Stable,2.336,0.651,1.685,2.882,inexpert
108,1673540993071,12/01/2023 16:29:53,1673540996299,0,12/01/2023 16:29:56,111483,5,task-qrxs,repeat-7g8d#1->-repeat-38fk#1->-repeat-qjz7#1->-repeat-5t6i#1,26348654,BLIND,7766409,NaN,complete,NaN,63c019471dfc66664bd1e86e,computer,Desktop or Laptop,Windows 10,Chrome 108.0.0.0,1366x768,1366x768,Start of Day 2,SLS,90,A,Pass,End of Day 1,Pass,NaN,NaN,NaN,Pass,NaN,Pass,NaN,Start of Day 2,NaN,schedule_B,schedule_B,22,11,6,end,Zone1,timelimit_screen,150.004999999976,NaN,NaN,,NaN,0,1,0,NaN,NaN,1,NaN,NaN,trial_left,blueBox.png,blueBox.png,greenBox.png,al2_uncon.png,42,21,NaN,NaN,0.85,0.15,1,1,1,1,Stable,Stable,2.336,0.651,1.685,2.882,inexpert
109,1673540993816,12/01/2023 16:29:53,1673540997037,0,12/01/2023 16:29:57,111483,5,task-qrxs,repeat-7g8d#1->-repeat-38fk#1->-repeat-qjz7#1->-repeat-5t6i#1,26348654,BLIND,7766409,NaN,complete,NaN,63c019471dfc66664bd1e86e,computer,Desktop or Laptop,Windows 10,Chrome 108.0.0.0,1366x768,1366x768,Start of Day 2,SLS,90,A,Pass,End of Day 1,Pass,NaN,NaN,NaN,Pass,NaN,Pass,NaN,Start of Day 2,NaN,schedule_B,schedule_B,23,11,1,Screen 1,Zone1,continue_button,636.800000071526,NaN,NaN,,NaN,0,1,0,NaN,NaN,NaN,NaN,NaN,trial_right,blueBox.png,blueBox.png,greenBox.png,al2_uncon.png,43,22,NaN,NaN,0.85,0.15,1,0,0,1,Stable,Stable,3.622,1.319,1.193,1.067,inexpert
110,1673540994817,12/01/2023 16:29:54,1673540998033,0,12/01/2023 16:29:58,111483,5,task-qrxs,repeat-7g8d#1->-repeat-38fk#1->-repeat-qjz7#1->-repeat-5t6i#1,26348654,BLIND,7766409,NaN,complete,NaN,63c019471dfc66664bd1e86e,computer,Desktop or Laptop,Windows 10,Chrome 108.0.0.0,1366x768,1366x768,Start of Day 2,SLS,90,A,Pass,End of Day 1,Pass,NaN,NaN,NaN,Pass,NaN,Pass,NaN,Start of Day 2,NaN,schedule_B,schedule_B,23,11,2,individual,Zone4,timelimit_screen,999.945000000007,NaN,NaN,,NaN,0,1,0,NaN,NaN,1,NaN,NaN,trial_right,blueBox.png,blueBox.png,greenBox.png,al2_uncon.png,43,22,NaN,NaN,0.85,0.15,1,0,0,1,Stable,Stable,3.622,1.319,1.193,1.067,inexpert
111,1673540995298,12/01/2023 16:29:55,1673540998519,0,12/01/2023 16:29:58,111483,5,task-qrxs,repeat-7g8d#1->-repeat-38fk#1->-repeat-qjz7#1->-repeat-5t6i#1,26348654,BLIND,7766409,NaN,complete,NaN,63c019471dfc66664bd1e86e,computer,Desktop or Laptop,Windows 10,Chrome 108.0.0.0,1366x768,1366x768,Start of Day 2,SLS,90,A,Pass,End of Day 1,Pass,NaN,NaN,NaN,Pass,NaN,Pass,NaN,Start of Day 2,NaN,schedule_B,schedule_B,23,11,3,offer,Zone2,response_button_image,445.299999952316,NaN,NaN,blueBox.png,1,1,0,0,NaN,NaN,NaN,NaN,NaN,trial_right,blueBox.png,blueBox.png,greenBox.png,al2_uncon.png,43,22,NaN,NaN,0.85,0.15,1,0,0,1,Stable,Stable,3.622,1.319,1.193,1.067,inexpert
112,1673540997395,12/01/2023 16:29:57,1673541000510,0,12/01/2023 16:30:00,111483,5,task-qrxs,repeat-7g8d#1->-repeat-38fk#1->-repeat-qjz7#1->-repeat-5t6i#1,26348654,BLIND,7766409,NaN,complete,NaN,63c019471dfc66664bd1e86e,computer,Desktop or Laptop,Windows 10,Chrome 108.0.0.0,1366x768,1366x768,Start of Day 2,SLS,90,A,Pass,End of Day 1,Pass,NaN,NaN,NaN,Pass,NaN,Pass,NaN,Start of Day 2,NaN,schedule_B,schedule_B,23,11,4,feedback_l,Zone7,timelimit_screen,1999.913,NaN,NaN,,NaN,0,1,0,NaN,NaN,1,NaN,NaN,trial_right,blueBox.png,blueBox.png,greenBox.png,al2_uncon.png,43,22,NaN,NaN,0.85,0.15,1,0,0,1,Stable,Stable,3.622,1.319,1.193,1.067,inexpert
113,1673540997494,12/01/2023 16:29:57,1673541000651,0,12/01/2023 16:30:00,111483,5,task-qrxs,repeat-7g8d#1->-repeat-38fk#1->-repeat-qjz7#1->-repeat-5t6i#1,26348654,BLIND,7766409,NaN,complete,NaN,63c019471dfc66664bd1e86e,computer,Desktop or Laptop,Windows 10,Chrome 108.0.0.0,1366x768,1366x768,Start of Day 2,SLS,90,A,Pass,End of Day 1,Pass,NaN,NaN,NaN,Pass,NaN,Pass,NaN,Start of Day 2,NaN,schedule_B,schedule_B,23,11,6,end,Zone1,timelimit_screen,150.203000000009,NaN,NaN,,NaN,0,1,0,NaN,NaN,1,NaN,NaN,trial_right,blueBox.png,blueBox.png,greenBox.png,al2_uncon.png,43,22,NaN,NaN,0.85,0.15,1,0,0,1,Stable,Stable,3.622,1.319,1.193,1.067,inexpert
114,1673540997979,12/01/2023 16:29:57,1673541001198,0,12/01/2023 16:30:01,111483,5,task-qrxs,repeat-7g8d#1->-repeat-38fk#1->-repeat-qjz7#1->-repeat-5t6i#1,26348654,BLIND,7766409,NaN,complete,NaN,63c019471dfc66664bd1e86e,computer,Desktop or Laptop,Windows 10,Chrome 108.0.0.0,1366x768,1366x768,Start of Day 2,SLS,90,A,Pass,End of Day 1,Pass,NaN,NaN,NaN,Pass,NaN,Pass,NaN,Start of Day 2,NaN,schedule_B,schedule_B,24,12,1,Screen 1,Zone1,continue_button,506.200000047684,NaN,NaN,,NaN,0,1,0,NaN,NaN,NaN,NaN,NaN,trial_left,blueBox.png,greenBox.png,blueBox.png,al2_uncon.png,44,23,NaN,NaN,0.85,0.15,1,0,0,0,Stable,Stable,1.731,0.853,2,1.202,inexpert
115,1673540998965,12/01/2023 16:29:58,1673541002182,0,12/01/2023 16:30:02,111483,5,task-qrxs,repeat-7g8d#1->-repeat-38fk#1->-repeat-qjz7#1->-repeat-5t6i#1,26348654,BLIND,7766409,NaN,complete,NaN,63c019471dfc66664bd1e86e,computer,Desktop or Laptop,Windows 10,Chrome 108.0.0.0,1366x768,1366x768,Start of Day 2,SLS,90,A,Pass,End of Day 1,Pass,NaN,NaN,NaN,Pass,NaN,Pass,NaN,Start of Day 2,NaN,schedule_B,schedule_B,24,12,2,individual,Zone4,timelimit_screen,999.956000000006,NaN,NaN,,NaN,0,1,0,NaN,NaN,1,NaN,NaN,trial_left,blueBox.png,greenBox.png,blueBox.png,al2_uncon.png,44,23,NaN,NaN,0.85,0.15,1,0,0,0,Stable,Stable,1.731,0.853,2,1.202,inexpert
116,1673540999603,12/01/2023 16:29:59,1673541002822,0,12/01/2023 16:30:02,111483,5,task-qrxs,repeat-7g8d#1->-repeat-38fk#1->-repeat-qjz7#1->-repeat-5t6i#1,26348654,BLIND,7766409,NaN,complete,NaN,63c019471dfc66664bd1e86e,computer,Desktop or Laptop,Windows 10,Chrome 108.0.0.0,1366x768,1366x768,Start of Day 2,SLS,90,A,Pass,End of Day 1,Pass,NaN,NaN,NaN,Pass,NaN,Pass,NaN,Start of Day 2,NaN,schedule_B,schedule_B,24,12,3,offer,bluebox,response_button_image,588,NaN,NaN,blueBox.png,1,1,0,0,NaN,NaN,NaN,NaN,NaN,trial_left,blueBox.png,greenBox.png,blueBox.png,al2_uncon.png,44,23,NaN,NaN,0.85,0.15,1,0,0,0,Stable,Stable,1.731,0.853,2,1.202,inexpert
117,1673541001601,12/01/2023 16:30:01,1673541004815,0,12/01/2023 16:30:04,111483,5,task-qrxs,repeat-7g8d#1->-repeat-38fk#1->-repeat-qjz7#1->-repeat-5t6i#1,26348654,BLIND,7766409,NaN,complete,NaN,63c019471dfc66664bd1e86e,computer,Desktop or Laptop,Windows 10,Chrome 108.0.0.0,1366x768,1366x768,Start of Day 2,SLS,90,A,Pass,End of Day 1,Pass,NaN,NaN,NaN,Pass,NaN,Pass,NaN,Start of Day 2,NaN,schedule_B,schedule_B,24,12,5,feedback_r,Zone7,timelimit_screen,1999.91500000001,NaN,NaN,,NaN,0,1,0,NaN,NaN,1,NaN,NaN,trial_left,blueBox.png,greenBox.png,blueBox.png,al2_uncon.png,44,23,NaN,NaN,0.85,0.15,1,0,0,0,Stable,Stable,1.731,0.853,2,1.202,inexpert
118,1673541001750,12/01/2023 16:30:01,1673541004968,0,12/01/2023 16:30:04,111483,5,task-qrxs,repeat-7g8d#1->-repeat-38fk#1->-repeat-qjz7#1->-repeat-5t6i#1,26348654,BLIND,7766409,NaN,complete,NaN,63c019471dfc66664bd1e86e,computer,Desktop or Laptop,Windows 10,Chrome 108.0.0.0,1366x768,1366x768,Start of Day 2,SLS,90,A,Pass,End of Day 1,Pass,NaN,NaN,NaN,Pass,NaN,Pass,NaN,Start of Day 2,NaN,schedule_B,schedule_B,24,12,6,end,Zone1,timelimit_screen,153.285999999993,NaN,NaN,,NaN,0,1,0,NaN,NaN,1,NaN,NaN,trial_left,blueBox.png,greenBox.png,blueBox.png,al2_uncon.png,44,23,NaN,NaN,0.85,0.15,1,0,0,0,Stable,Stable,1.731,0.853,2,1.202,inexpert
119,1673541002236,12/01/2023 16:30:02,1673541005454,0,12/01/2023 16:30:05,111483,5,task-qrxs,repeat-7g8d#1->-repeat-38fk#1->-repeat-qjz7#1->-repeat-5t6i#1,26348654,BLIND,7766409,NaN,complete,NaN,63c019471dfc66664bd1e86e,computer,Desktop or Laptop,Windows 10,Chrome 108.0.0.0,1366x768,1366x768,Start of Day 2,SLS,90,A,Pass,End of Day 1,Pass,NaN,NaN,NaN,Pass,NaN,Pass,NaN,Start of Day 2,NaN,schedule_B,schedule_B,25,13,1,Screen 1,Zone1,continue_button,431.199999928474,NaN,NaN,,NaN,0,1,0,NaN,NaN,NaN,NaN,NaN,trial_left,blueBox.png,blueBox.png,greenBox.png,al2_uncon.png,45,24,NaN,NaN,0.85,0.15,1,1,1,1,Stable,Stable,2.109,1.798,1.508,2.782,inexpert
120,1673541003236,12/01/2023 16:30:03,1673541006449,0,12/01/2023 16:30:06,111483,5,task-qrxs,repeat-7g8d#1->-repeat-38fk#1->-repeat-qjz7#1->-repeat-5t6i#1,26348654,BLIND,7766409,NaN,complete,NaN,63c019471dfc66664bd1e86e,computer,Desktop or Laptop,Windows 10,Chrome 108.0.0.0,1366x768,1366x768,Start of Day 2,SLS,90,A,Pass,End of Day 1,Pass,NaN,NaN,NaN,Pass,NaN,Pass,NaN,Start of Day 2,NaN,schedule_B,schedule_B,25,13,2,individual,Zone4,timelimit_screen,999.964999999997,NaN,NaN,,NaN,0,1,0,NaN,NaN,1,NaN,NaN,trial_left,blueBox.png,blueBox.png,greenBox.png,al2_uncon.png,45,24,NaN,NaN,0.85,0.15,1,1,1,1,Stable,Stable,2.109,1.798,1.508,2.782,inexpert
121,1673541003798,12/01/2023 16:30:03,1673541007013,0,12/01/2023 16:30:07,111483,5,task-qrxs,repeat-7g8d#1->-repeat-38fk#1->-repeat-qjz7#1->-repeat-5t6i#1,26348654,BLIND,7766409,NaN,complete,NaN,63c019471dfc66664bd1e86e,computer,Desktop or Laptop,Windows 10,Chrome 108.0.0.0,1366x768,1366x768,Start of Day 2,SLS,90,A,Pass,End of Day 1,Pass,NaN,NaN,NaN,Pass,NaN,Pass,NaN,Start of Day 2,NaN,schedule_B,schedule_B,25,13,3,offer,Zone2,response_button_image,515.700000047684,NaN,NaN,blueBox.png,1,1,0,0,NaN,NaN,NaN,NaN,NaN,trial_left,blueBox.png,blueBox.png,greenBox.png,al2_uncon.png,45,24,NaN,NaN,0.85,0.15,1,1,1,1,Stable,Stable,2.109,1.798,1.508,2.782,inexpert
122,1673541005776,12/01/2023 16:30:05,1673541008998,0,12/01/2023 16:30:08,111483,5,task-qrxs,repeat-7g8d#1->-repeat-38fk#1->-repeat-qjz7#1->-repeat-5t6i#1,26348654,BLIND,7766409,NaN,complete,NaN,63c019471dfc66664bd1e86e,computer,Desktop or Laptop,Windows 10,Chrome 108.0.0.0,1366x768,1366x768,Start of Day 2,SLS,90,A,Pass,End of Day 1,Pass,NaN,NaN,NaN,Pass,NaN,Pass,NaN,Start of Day 2,NaN,schedule_B,schedule_B,25,13,4,feedback_l,Zone7,timelimit_screen,1999.93000000002,NaN,NaN,,NaN,0,1,0,NaN,NaN,1,NaN,NaN,trial_left,blueBox.png,blueBox.png,greenBox.png,al2_uncon.png,45,24,NaN,NaN,0.85,0.15,1,1,1,1,Stable,Stable,2.109,1.798,1.508,2.782,inexpert
123,1673541005929,12/01/2023 16:30:05,1673541009148,0,12/01/2023 16:30:09,111483,5,task-qrxs,repeat-7g8d#1->-repeat-38fk#1->-repeat-qjz7#1->-repeat-5t6i#1,26348654,BLIND,7766409,NaN,complete,NaN,63c019471dfc66664bd1e86e,computer,Desktop or Laptop,Windows 10,Chrome 108.0.0.0,1366x768,1366x768,Start of Day 2,SLS,90,A,Pass,End of Day 1,Pass,NaN,NaN,NaN,Pass,NaN,Pass,NaN,Start of Day 2,NaN,schedule_B,schedule_B,25,13,6,end,Zone1,timelimit_screen,149.981,NaN,NaN,,NaN,0,1,0,NaN,NaN,1,NaN,NaN,trial_left,blueBox.png,blueBox.png,greenBox.png,al2_uncon.png,45,24,NaN,NaN,0.85,0.15,1,1,1,1,Stable,Stable,2.109,1.798,1.508,2.782,inexpert
124,1673541006658,12/01/2023 16:30:06,1673541009788,0,12/01/2023 16:30:09,111483,5,task-qrxs,repeat-7g8d#1->-repeat-38fk#1->-repeat-qjz7#1->-repeat-5t6i#1,26348654,BLIND,7766409,NaN,complete,NaN,63c019471dfc66664bd1e86e,computer,Desktop or Laptop,Windows 10,Chrome 108.0.0.0,1366x768,1366x768,Start of Day 2,SLS,90,A,Pass,End of Day 1,Pass,NaN,NaN,NaN,Pass,NaN,Pass,NaN,Start of Day 2,NaN,schedule_B,schedule_B,26,12,1,Screen 1,Zone1,continue_button,579.700000047684,NaN,NaN,,NaN,0,1,0,NaN,NaN,NaN,NaN,NaN,trial_right,blueBox.png,greenBox.png,blueBox.png,al2_uncon.png,46,25,NaN,NaN,0.85,0.15,1,1,1,0,Stable,Stable,2.916,1.294,1.962,2.361,inexpert
125,1673541007551,12/01/2023 16:30:07,1673541010783,0,12/01/2023 16:30:10,111483,5,task-qrxs,repeat-7g8d#1->-repeat-38fk#1->-repeat-qjz7#1->-repeat-5t6i#1,26348654,BLIND,7766409,NaN,complete,NaN,63c019471dfc66664bd1e86e,computer,Desktop or Laptop,Windows 10,Chrome 108.0.0.0,1366x768,1366x768,Start of Day 2,SLS,90,A,Pass,End of Day 1,Pass,NaN,NaN,NaN,Pass,NaN,Pass,NaN,Start of Day 2,NaN,schedule_B,schedule_B,26,12,2,individual,Zone4,timelimit_screen,999.965999999986,NaN,NaN,,NaN,0,1,0,NaN,NaN,1,NaN,NaN,trial_right,blueBox.png,greenBox.png,blueBox.png,al2_uncon.png,46,25,NaN,NaN,0.85,0.15,1,1,1,0,Stable,Stable,2.916,1.294,1.962,2.361,inexpert
126,1673541008735,12/01/2023 16:30:08,1673541011956,0,12/01/2023 16:30:11,111483,5,task-qrxs,repeat-7g8d#1->-repeat-38fk#1->-repeat-qjz7#1->-repeat-5t6i#1,26348654,BLIND,7766409,NaN,complete,NaN,63c019471dfc66664bd1e86e,computer,Desktop or Laptop,Windows 10,Chrome 108.0.0.0,1366x768,1366x768,Start of Day 2,SLS,90,A,Pass,End of Day 1,Pass,NaN,NaN,NaN,Pass,NaN,Pass,NaN,Start of Day 2,NaN,schedule_B,schedule_B,26,12,3,offer,Zone3,response_button_image,1132.10000002384,NaN,NaN,blueBox.png,1,1,0,0,NaN,NaN,NaN,NaN,NaN,trial_right,blueBox.png,greenBox.png,blueBox.png,al2_uncon.png,46,25,NaN,NaN,0.85,0.15,1,1,1,0,Stable,Stable,2.916,1.294,1.962,2.361,inexpert
127,1673541010742,12/01/2023 16:30:10,1673541013948,0,12/01/2023 16:30:13,111483,5,task-qrxs,repeat-7g8d#1->-repeat-38fk#1->-repeat-qjz7#1->-repeat-5t6i#1,26348654,BLIND,7766409,NaN,complete,NaN,63c019471dfc66664bd1e86e,computer,Desktop or Laptop,Windows 10,Chrome 108.0.0.0,1366x768,1366x768,Start of Day 2,SLS,90,A,Pass,End of Day 1,Pass,NaN,NaN,NaN,Pass,NaN,Pass,NaN,Start of Day 2,NaN,schedule_B,schedule_B,26,12,5,feedback_r,Zone7,timelimit_screen,1999.79800000001,NaN,NaN,,NaN,0,1,0,NaN,NaN,1,NaN,NaN,trial_right,blueBox.png,greenBox.png,blueBox.png,al2_uncon.png,46,25,NaN,NaN,0.85,0.15,1,1,1,0,Stable,Stable,2.916,1.294,1.962,2.361,inexpert
128,1673541010892,12/01/2023 16:30:10,1673541014107,0,12/01/2023 16:30:14,111483,5,task-qrxs,repeat-7g8d#1->-repeat-38fk#1->-repeat-qjz7#1->-repeat-5t6i#1,26348654,BLIND,7766409,NaN,complete,NaN,63c019471dfc66664bd1e86e,computer,Desktop or Laptop,Windows 10,Chrome 108.0.0.0,1366x768,1366x768,Start of Day 2,SLS,90,A,Pass,End of Day 1,Pass,NaN,NaN,NaN,Pass,NaN,Pass,NaN,Start of Day 2,NaN,schedule_B,schedule_B,26,12,6,end,Zone1,timelimit_screen,156.117999999988,NaN,NaN,,NaN,0,1,0,NaN,NaN,1,NaN,NaN,trial_right,blueBox.png,greenBox.png,blueBox.png,al2_uncon.png,46,25,NaN,NaN,0.85,0.15,1,1,1,0,Stable,Stable,2.916,1.294,1.962,2.361,inexpert
129,1673541011848,12/01/2023 16:30:11,1673541015061,0,12/01/2023 16:30:15,111483,5,task-qrxs,repeat-7g8d#1->-repeat-38fk#1->-repeat-qjz7#1->-repeat-5t6i#1,26348654,BLIND,7766409,NaN,complete,NaN,63c019471dfc66664bd1e86e,computer,Desktop or Laptop,Windows 10,Chrome 108.0.0.0,1366x768,1366x768,Start of Day 2,SLS,90,A,Pass,End of Day 1,Pass,NaN,NaN,NaN,Pass,NaN,Pass,NaN,Start of Day 2,NaN,schedule_B,schedule_B,27,13,1,Screen 1,Zone1,continue_button,915.799999952316,NaN,NaN,,NaN,0,1,0,NaN,NaN,NaN,NaN,NaN,trial_right,blueBox.png,blueBox.png,greenBox.png,al2_uncon.png,47,26,NaN,NaN,0.85,0.15,1,0,0,1,Stable,Stable,2.487,1.697,1.13,1.286,inexpert
130,1673541012834,12/01/2023 16:30:12,1673541016049,0,12/01/2023 16:30:16,111483,5,task-qrxs,repeat-7g8d#1->-repeat-38fk#1->-repeat-qjz7#1->-repeat-5t6i#1,26348654,BLIND,7766409,NaN,complete,NaN,63c019471dfc66664bd1e86e,computer,Desktop or Laptop,Windows 10,Chrome 108.0.0.0,1366x768,1366x768,Start of Day 2,SLS,90,A,Pass,End of Day 1,Pass,NaN,NaN,NaN,Pass,NaN,Pass,NaN,Start of Day 2,NaN,schedule_B,schedule_B,27,13,2,individual,Zone4,timelimit_screen,999.951000000001,NaN,NaN,,NaN,0,1,0,NaN,NaN,1,NaN,NaN,trial_right,blueBox.png,blueBox.png,greenBox.png,al2_uncon.png,47,26,NaN,NaN,0.85,0.15,1,0,0,1,Stable,Stable,2.487,1.697,1.13,1.286,inexpert
131,1673541013994,12/01/2023 16:30:13,1673541017204,0,12/01/2023 16:30:17,111483,5,task-qrxs,repeat-7g8d#1->-repeat-38fk#1->-repeat-qjz7#1->-repeat-5t6i#1,26348654,BLIND,7766409,NaN,complete,NaN,63c019471dfc66664bd1e86e,computer,Desktop or Laptop,Windows 10,Chrome 108.0.0.0,1366x768,1366x768,Start of Day 2,SLS,90,A,Pass,End of Day 1,Pass,NaN,NaN,NaN,Pass,NaN,Pass,NaN,Start of Day 2,NaN,schedule_B,schedule_B,27,13,3,offer,Zone2,response_button_image,1105.29999995232,NaN,NaN,blueBox.png,1,1,0,0,NaN,NaN,NaN,NaN,NaN,trial_right,blueBox.png,blueBox.png,greenBox.png,al2_uncon.png,47,26,NaN,NaN,0.85,0.15,1,0,0,1,Stable,Stable,2.487,1.697,1.13,1.286,inexpert
132,1673541015994,12/01/2023 16:30:15,1673541019198,0,12/01/2023 16:30:19,111483,5,task-qrxs,repeat-7g8d#1->-repeat-38fk#1->-repeat-qjz7#1->-repeat-5t6i#1,26348654,BLIND,7766409,NaN,complete,NaN,63c019471dfc66664bd1e86e,computer,Desktop or Laptop,Windows 10,Chrome 108.0.0.0,1366x768,1366x768,Start of Day 2,SLS,90,A,Pass,End of Day 1,Pass,NaN,NaN,NaN,Pass,NaN,Pass,NaN,Start of Day 2,NaN,schedule_B,schedule_B,27,13,4,feedback_l,Zone7,timelimit_screen,1999.902,NaN,NaN,,NaN,0,1,0,NaN,NaN,1,NaN,NaN,trial_right,blueBox.png,blueBox.png,greenBox.png,al2_uncon.png,47,26,NaN,NaN,0.85,0.15,1,0,0,1,Stable,Stable,2.487,1.697,1.13,1.286,inexpert
133,1673541016239,12/01/2023 16:30:16,1673541019347,0,12/01/2023 16:30:19,111483,5,task-qrxs,repeat-7g8d#1->-repeat-38fk#1->-repeat-qjz7#1->-repeat-5t6i#1,26348654,BLIND,7766409,NaN,complete,NaN,63c019471dfc66664bd1e86e,computer,Desktop or Laptop,Windows 10,Chrome 108.0.0.0,1366x768,1366x768,Start of Day 2,SLS,90,A,Pass,End of Day 1,Pass,NaN,NaN,NaN,Pass,NaN,Pass,NaN,Start of Day 2,NaN,schedule_B,schedule_B,27,13,6,end,Zone1,timelimit_screen,149.991999999998,NaN,NaN,,NaN,0,1,0,NaN,NaN,1,NaN,NaN,trial_right,blueBox.png,blueBox.png,greenBox.png,al2_uncon.png,47,26,NaN,NaN,0.85,0.15,1,0,0,1,Stable,Stable,2.487,1.697,1.13,1.286,inexpert
134,1673541017330,12/01/2023 16:30:17,1673541020538,0,12/01/2023 16:30:20,111483,5,task-qrxs,repeat-7g8d#1->-repeat-38fk#1->-repeat-qjz7#1->-repeat-5t6i#1,26348654,BLIND,7766409,NaN,complete,NaN,63c019471dfc66664bd1e86e,computer,Desktop or Laptop,Windows 10,Chrome 108.0.0.0,1366x768,1366x768,Start of Day 2,SLS,90,A,Pass,End of Day 1,Pass,NaN,NaN,NaN,Pass,NaN,Pass,NaN,Start of Day 2,NaN,schedule_B,schedule_B,28,14,1,Screen 1,Zone1,continue_button,1121.39999997616,NaN,NaN,,NaN,0,1,0,NaN,NaN,NaN,NaN,NaN,trial_left,blueBox.png,greenBox.png,blueBox.png,al2_uncon.png,48,27,NaN,NaN,0.85,0.15,1,0,0,0,Stable,Stable,3.824,1.634,0.992,2.244,inexpert
135,1673541018322,12/01/2023 16:30:18,1673541021531,0,12/01/2023 16:30:21,111483,5,task-qrxs,repeat-7g8d#1->-repeat-38fk#1->-repeat-qjz7#1->-repeat-5t6i#1,26348654,BLIND,7766409,NaN,complete,NaN,63c019471dfc66664bd1e86e,computer,Desktop or Laptop,Windows 10,Chrome 108.0.0.0,1366x768,1366x768,Start of Day 2,SLS,90,A,Pass,End of Day 1,Pass,NaN,NaN,NaN,Pass,NaN,Pass,NaN,Start of Day 2,NaN,schedule_B,schedule_B,28,14,2,individual,Zone4,timelimit_screen,999.949999999983,NaN,NaN,,NaN,0,1,0,NaN,NaN,1,NaN,NaN,trial_left,blueBox.png,greenBox.png,blueBox.png,al2_uncon.png,48,27,NaN,NaN,0.85,0.15,1,0,0,0,Stable,Stable,3.824,1.634,0.992,2.244,inexpert
136,1673541020263,12/01/2023 16:30:20,1673541023478,0,12/01/2023 16:30:23,111483,5,task-qrxs,repeat-7g8d#1->-repeat-38fk#1->-repeat-qjz7#1->-repeat-5t6i#1,26348654,BLIND,7766409,NaN,complete,NaN,63c019471dfc66664bd1e86e,computer,Desktop or Laptop,Windows 10,Chrome 108.0.0.0,1366x768,1366x768,Start of Day 2,SLS,90,A,Pass,End of Day 1,Pass,NaN,NaN,NaN,Pass,NaN,Pass,NaN,Start of Day 2,NaN,schedule_B,schedule_B,28,14,3,offer,bluebox,response_button_image,1910.29999995232,NaN,NaN,blueBox.png,1,1,0,0,NaN,NaN,NaN,NaN,NaN,trial_left,blueBox.png,greenBox.png,blueBox.png,al2_uncon.png,48,27,NaN,NaN,0.85,0.15,1,0,0,0,Stable,Stable,3.824,1.634,0.992,2.244,inexpert
137,1673541022249,12/01/2023 16:30:22,1673541025464,0,12/01/2023 16:30:25,111483,5,task-qrxs,repeat-7g8d#1->-repeat-38fk#1->-repeat-qjz7#1->-repeat-5t6i#1,26348654,BLIND,7766409,NaN,complete,NaN,63c019471dfc66664bd1e86e,computer,Desktop or Laptop,Windows 10,Chrome 108.0.0.0,1366x768,1366x768,Start of Day 2,SLS,90,A,Pass,End of Day 1,Pass,NaN,NaN,NaN,Pass,NaN,Pass,NaN,Start of Day 2,NaN,schedule_B,schedule_B,28,14,5,feedback_r,Zone7,timelimit_screen,1999.88500000001,NaN,NaN,,NaN,0,1,0,NaN,NaN,1,NaN,NaN,trial_left,blueBox.png,greenBox.png,blueBox.png,al2_uncon.png,48,27,NaN,NaN,0.85,0.15,1,0,0,0,Stable,Stable,3.824,1.634,0.992,2.244,inexpert
138,1673541022399,12/01/2023 16:30:22,1673541025614,0,12/01/2023 16:30:25,111483,5,task-qrxs,repeat-7g8d#1->-repeat-38fk#1->-repeat-qjz7#1->-repeat-5t6i#1,26348654,BLIND,7766409,NaN,complete,NaN,63c019471dfc66664bd1e86e,computer,Desktop or Laptop,Windows 10,Chrome 108.0.0.0,1366x768,1366x768,Start of Day 2,SLS,90,A,Pass,End of Day 1,Pass,NaN,NaN,NaN,Pass,NaN,Pass,NaN,Start of Day 2,NaN,schedule_B,schedule_B,28,14,6,end,Zone1,timelimit_screen,150.002000000008,NaN,NaN,,NaN,0,1,0,NaN,NaN,1,NaN,NaN,trial_left,blueBox.png,greenBox.png,blueBox.png,al2_uncon.png,48,27,NaN,NaN,0.85,0.15,1,0,0,0,Stable,Stable,3.824,1.634,0.992,2.244,inexpert
139,1673541022918,12/01/2023 16:30:22,1673541026125,0,12/01/2023 16:30:26,111483,5,task-qrxs,repeat-7g8d#1->-repeat-38fk#1->-repeat-qjz7#1->-repeat-5t6i#1,26348654,BLIND,7766409,NaN,complete,NaN,63c019471dfc66664bd1e86e,computer,Desktop or Laptop,Windows 10,Chrome 108.0.0.0,1366x768,1366x768,Start of Day 2,SLS,90,A,Pass,End of Day 1,Pass,NaN,NaN,NaN,Pass,NaN,Pass,NaN,Start of Day 2,NaN,schedule_B,schedule_B,29,14,1,Screen 1,Zone1,continue_button,415.300000071526,NaN,NaN,,NaN,0,1,0,NaN,NaN,NaN,NaN,NaN,trial_right,blueBox.png,blueBox.png,greenBox.png,al2_uncon.png,49,28,NaN,NaN,0.85,0.15,1,0,0,1,Stable,Stable,2.84,1.937,1.723,2.815,inexpert
140,1673541023893,12/01/2023 16:30:23,1673541027115,0,12/01/2023 16:30:27,111483,5,task-qrxs,repeat-7g8d#1->-repeat-38fk#1->-repeat-qjz7#1->-repeat-5t6i#1,26348654,BLIND,7766409,NaN,complete,NaN,63c019471dfc66664bd1e86e,computer,Desktop or Laptop,Windows 10,Chrome 108.0.0.0,1366x768,1366x768,Start of Day 2,SLS,90,A,Pass,End of Day 1,Pass,NaN,NaN,NaN,Pass,NaN,Pass,NaN,Start of Day 2,NaN,schedule_B,schedule_B,29,14,2,individual,Zone4,timelimit_screen,999.956000000006,NaN,NaN,,NaN,0,1,0,NaN,NaN,1,NaN,NaN,trial_right,blueBox.png,blueBox.png,greenBox.png,al2_uncon.png,49,28,NaN,NaN,0.85,0.15,1,0,0,1,Stable,Stable,2.84,1.937,1.723,2.815,inexpert
141,1673541025416,12/01/2023 16:30:25,1673541028636,0,12/01/2023 16:30:28,111483,5,task-qrxs,repeat-7g8d#1->-repeat-38fk#1->-repeat-qjz7#1->-repeat-5t6i#1,26348654,BLIND,7766409,NaN,complete,NaN,63c019471dfc66664bd1e86e,computer,Desktop or Laptop,Windows 10,Chrome 108.0.0.0,1366x768,1366x768,Start of Day 2,SLS,90,A,Pass,End of Day 1,Pass,NaN,NaN,NaN,Pass,NaN,Pass,NaN,Start of Day 2,NaN,schedule_B,schedule_B,29,14,3,offer,Zone2,response_button_image,1467.59999990463,NaN,NaN,blueBox.png,1,1,0,0,NaN,NaN,NaN,NaN,NaN,trial_right,blueBox.png,blueBox.png,greenBox.png,al2_uncon.png,49,28,NaN,NaN,0.85,0.15,1,0,0,1,Stable,Stable,2.84,1.937,1.723,2.815,inexpert
142,1673541027534,12/01/2023 16:30:27,1673541030630,0,12/01/2023 16:30:30,111483,5,task-qrxs,repeat-7g8d#1->-repeat-38fk#1->-repeat-qjz7#1->-repeat-5t6i#1,26348654,BLIND,7766409,NaN,complete,NaN,63c019471dfc66664bd1e86e,computer,Desktop or Laptop,Windows 10,Chrome 108.0.0.0,1366x768,1366x768,Start of Day 2,SLS,90,A,Pass,End of Day 1,Pass,NaN,NaN,NaN,Pass,NaN,Pass,NaN,Start of Day 2,NaN,schedule_B,schedule_B,29,14,4,feedback_l,Zone7,timelimit_screen,1999.91699999999,NaN,NaN,,NaN,0,1,0,NaN,NaN,1,NaN,NaN,trial_right,blueBox.png,blueBox.png,greenBox.png,al2_uncon.png,49,28,NaN,NaN,0.85,0.15,1,0,0,1,Stable,Stable,2.84,1.937,1.723,2.815,inexpert
143,1673541027654,12/01/2023 16:30:27,1673541030783,0,12/01/2023 16:30:30,111483,5,task-qrxs,repeat-7g8d#1->-repeat-38fk#1->-repeat-qjz7#1->-repeat-5t6i#1,26348654,BLIND,7766409,NaN,complete,NaN,63c019471dfc66664bd1e86e,computer,Desktop or Laptop,Windows 10,Chrome 108.0.0.0,1366x768,1366x768,Start of Day 2,SLS,90,A,Pass,End of Day 1,Pass,NaN,NaN,NaN,Pass,NaN,Pass,NaN,Start of Day 2,NaN,schedule_B,schedule_B,29,14,6,end,Zone1,timelimit_screen,150.292000000016,NaN,NaN,,NaN,0,1,0,NaN,NaN,1,NaN,NaN,trial_right,blueBox.png,blueBox.png,greenBox.png,al2_uncon.png,49,28,NaN,NaN,0.85,0.15,1,0,0,1,Stable,Stable,2.84,1.937,1.723,2.815,inexpert
144,1673541028629,12/01/2023 16:30:28,1673541031844,0,12/01/2023 16:30:31,111483,5,task-qrxs,repeat-7g8d#1->-repeat-38fk#1->-repeat-qjz7#1->-repeat-5t6i#1,26348654,BLIND,7766409,NaN,complete,NaN,63c019471dfc66664bd1e86e,computer,Desktop or Laptop,Windows 10,Chrome 108.0.0.0,1366x768,1366x768,Start of Day 2,SLS,90,A,Pass,End of Day 1,Pass,NaN,NaN,NaN,Pass,NaN,Pass,NaN,Start of Day 2,NaN,schedule_B,schedule_B,30,15,1,Screen 1,Zone1,continue_button,1000.5,NaN,NaN,,NaN,0,1,0,NaN,NaN,NaN,NaN,NaN,trial_right,blueBox.png,blueBox.png,greenBox.png,al2_uncon.png,50,29,NaN,NaN,0.85,0.15,1,0,0,1,Stable,Stable,2.941,1.71,0.664,1.336,inexpert
145,1673541029621,12/01/2023 16:30:29,1673541032832,0,12/01/2023 16:30:32,111483,5,task-qrxs,repeat-7g8d#1->-repeat-38fk#1->-repeat-qjz7#1->-repeat-5t6i#1,26348654,BLIND,7766409,NaN,complete,NaN,63c019471dfc66664bd1e86e,computer,Desktop or Laptop,Windows 10,Chrome 108.0.0.0,1366x768,1366x768,Start of Day 2,SLS,90,A,Pass,End of Day 1,Pass,NaN,NaN,NaN,Pass,NaN,Pass,NaN,Start of Day 2,NaN,schedule_B,schedule_B,30,15,2,individual,Zone4,timelimit_screen,999.964999999997,NaN,NaN,,NaN,0,1,0,NaN,NaN,1,NaN,NaN,trial_right,blueBox.png,blueBox.png,greenBox.png,al2_uncon.png,50,29,NaN,NaN,0.85,0.15,1,0,0,1,Stable,Stable,2.941,1.71,0.664,1.336,inexpert
146,1673541030882,12/01/2023 16:30:30,1673541034089,0,12/01/2023 16:30:34,111483,5,task-qrxs,repeat-7g8d#1->-repeat-38fk#1->-repeat-qjz7#1->-repeat-5t6i#1,26348654,BLIND,7766409,NaN,complete,NaN,63c019471dfc66664bd1e86e,computer,Desktop or Laptop,Windows 10,Chrome 108.0.0.0,1366x768,1366x768,Start of Day 2,SLS,90,A,Pass,End of Day 1,Pass,NaN,NaN,NaN,Pass,NaN,Pass,NaN,Start of Day 2,NaN,schedule_B,schedule_B,30,15,3,offer,Zone2,response_button_image,1204.10000002384,NaN,NaN,blueBox.png,1,1,0,0,NaN,NaN,NaN,NaN,NaN,trial_right,blueBox.png,blueBox.png,greenBox.png,al2_uncon.png,50,29,NaN,NaN,0.85,0.15,1,0,0,1,Stable,Stable,2.941,1.71,0.664,1.336,inexpert
147,1673541032857,12/01/2023 16:30:32,1673541036080,0,12/01/2023 16:30:36,111483,5,task-qrxs,repeat-7g8d#1->-repeat-38fk#1->-repeat-qjz7#1->-repeat-5t6i#1,26348654,BLIND,7766409,NaN,complete,NaN,63c019471dfc66664bd1e86e,computer,Desktop or Laptop,Windows 10,Chrome 108.0.0.0,1366x768,1366x768,Start of Day 2,SLS,90,A,Pass,End of Day 1,Pass,NaN,NaN,NaN,Pass,NaN,Pass,NaN,Start of Day 2,NaN,schedule_B,schedule_B,30,15,4,feedback_l,Zone7,timelimit_screen,1997.98500000002,NaN,NaN,,NaN,0,1,0,NaN,NaN,1,NaN,NaN,trial_right,blueBox.png,blueBox.png,greenBox.png,al2_uncon.png,50,29,NaN,NaN,0.85,0.15,1,0,0,1,Stable,Stable,2.941,1.71,0.664,1.336,inexpert
148,1673541033020,12/01/2023 16:30:33,1673541036230,0,12/01/2023 16:30:36,111483,5,task-qrxs,repeat-7g8d#1->-repeat-38fk#1->-repeat-qjz7#1->-repeat-5t6i#1,26348654,BLIND,7766409,NaN,complete,NaN,63c019471dfc66664bd1e86e,computer,Desktop or Laptop,Windows 10,Chrome 108.0.0.0,1366x768,1366x768,Start of Day 2,SLS,90,A,Pass,End of Day 1,Pass,NaN,NaN,NaN,Pass,NaN,Pass,NaN,Start of Day 2,NaN,schedule_B,schedule_B,30,15,6,end,Zone1,timelimit_screen,149.982999999978,NaN,NaN,,NaN,0,1,0,NaN,NaN,1,NaN,NaN,trial_right,blueBox.png,blueBox.png,greenBox.png,al2_uncon.png,50,29,NaN,NaN,0.85,0.15,1,0,0,1,Stable,Stable,2.941,1.71,0.664,1.336,inexpert
149,1673541033735,12/01/2023 16:30:33,1673541036949,0,12/01/2023 16:30:36,111483,5,task-qrxs,repeat-7g8d#1->-repeat-38fk#1->-repeat-qjz7#1->-repeat-5t6i#1,26348654,BLIND,7766409,NaN,complete,NaN,63c019471dfc66664bd1e86e,computer,Desktop or Laptop,Windows 10,Chrome 108.0.0.0,1366x768,1366x768,Start of Day 2,SLS,90,A,Pass,End of Day 1,Pass,NaN,NaN,NaN,Pass,NaN,Pass,NaN,Start of Day 2,NaN,schedule_B,schedule_B,31,15,1,Screen 1,Zone1,continue_button,670.099999904633,NaN,NaN,,NaN,0,1,0,NaN,NaN,NaN,NaN,NaN,trial_left,blueBox.png,greenBox.png,blueBox.png,al2_uncon.png,61,30,NaN,NaN,0.85,0.15,1,0,0,0,Stable,Stable,2.79,1.735,0.601,2.345,inexpert
150,1673541034716,12/01/2023 16:30:34,1673541037930,0,12/01/2023 16:30:37,111483,5,task-qrxs,repeat-7g8d#1->-repeat-38fk#1->-repeat-qjz7#1->-repeat-5t6i#1,26348654,BLIND,7766409,NaN,complete,NaN,63c019471dfc66664bd1e86e,computer,Desktop or Laptop,Windows 10,Chrome 108.0.0.0,1366x768,1366x768,Start of Day 2,SLS,90,A,Pass,End of Day 1,Pass,NaN,NaN,NaN,Pass,NaN,Pass,NaN,Start of Day 2,NaN,schedule_B,schedule_B,31,15,2,individual,Zone4,timelimit_screen,999.966000000015,NaN,NaN,,NaN,0,1,0,NaN,NaN,1,NaN,NaN,trial_left,blueBox.png,greenBox.png,blueBox.png,al2_uncon.png,61,30,NaN,NaN,0.85,0.15,1,0,0,0,Stable,Stable,2.79,1.735,0.601,2.345,inexpert
151,1673541041219,12/01/2023 16:30:41,1673541044317,0,12/01/2023 16:30:44,111483,5,task-qrxs,repeat-7g8d#1->-repeat-38fk#1->-repeat-qjz7#1->-repeat-5t6i#1,26348654,BLIND,7766409,NaN,complete,NaN,63c019471dfc66664bd1e86e,computer,Desktop or Laptop,Windows 10,Chrome 108.0.0.0,1366x768,1366x768,Start of Day 2,SLS,90,A,Pass,End of Day 1,Pass,NaN,NaN,NaN,Pass,NaN,Pass,NaN,Start of Day 2,NaN,schedule_B,schedule_B,31,15,3,offer,bluebox,response_button_image,6341.59999990463,NaN,NaN,blueBox.png,1,1,0,0,NaN,NaN,NaN,NaN,NaN,trial_left,blueBox.png,greenBox.png,blueBox.png,al2_uncon.png,61,30,NaN,NaN,0.85,0.15,1,0,0,0,Stable,Stable,2.79,1.735,0.601,2.345,inexpert
152,1673541043100,12/01/2023 16:30:43,1673541046300,0,12/01/2023 16:30:46,111483,5,task-qrxs,repeat-7g8d#1->-repeat-38fk#1->-repeat-qjz7#1->-repeat-5t6i#1,26348654,BLIND,7766409,NaN,complete,NaN,63c019471dfc66664bd1e86e,computer,Desktop or Laptop,Windows 10,Chrome 108.0.0.0,1366x768,1366x768,Start of Day 2,SLS,90,A,Pass,End of Day 1,Pass,NaN,NaN,NaN,Pass,NaN,Pass,NaN,Start of Day 2,NaN,schedule_B,schedule_B,31,15,5,feedback_r,Zone7,timelimit_screen,1999.81400000001,NaN,NaN,,NaN,0,1,0,NaN,NaN,1,NaN,NaN,trial_left,blueBox.png,greenBox.png,blueBox.png,al2_uncon.png,61,30,NaN,NaN,0.85,0.15,1,0,0,0,Stable,Stable,2.79,1.735,0.601,2.345,inexpert
153,1673541043245,12/01/2023 16:30:43,1673541046450,0,12/01/2023 16:30:46,111483,5,task-qrxs,repeat-7g8d#1->-repeat-38fk#1->-repeat-qjz7#1->-repeat-5t6i#1,26348654,BLIND,7766409,NaN,complete,NaN,63c019471dfc66664bd1e86e,computer,Desktop or Laptop,Windows 10,Chrome 108.0.0.0,1366x768,1366x768,Start of Day 2,SLS,90,A,Pass,End of Day 1,Pass,NaN,NaN,NaN,Pass,NaN,Pass,NaN,Start of Day 2,NaN,schedule_B,schedule_B,31,15,6,end,Zone1,timelimit_screen,150.066999999981,NaN,NaN,,NaN,0,1,0,NaN,NaN,1,NaN,NaN,trial_left,blueBox.png,greenBox.png,blueBox.png,al2_uncon.png,61,30,NaN,NaN,0.85,0.15,1,0,0,0,Stable,Stable,2.79,1.735,0.601,2.345,inexpert
