EventIndex,UTCTimestamp,UTCDate,LocalTimestamp,LocalTimezone,LocalDate,ExperimentID,ExperimentVersion,TreeNodeKey,RepeatKey,ScheduleID,ParticipantPublicID,ParticipantPrivateID,ParticipantStartingGroup,ParticipantStatus,ParticipantCompletionCode,ParticipantExternalSessionID,ParticipantDeviceType,ParticipantDevice,ParticipantOS,ParticipantBrowser,ParticipantMonitorSize,ParticipantViewportSize,Checkpoint,TaskName,TaskVersion,randomiser_6z9f,branch_kxy7,checkpoint_tqwf,branch_rtog,branch_7dgx,checkpoint_mqen,branch_yx2c,branch_3n8o,branch_f1s6,branch_x6l7,branch_21hs,checkpoint_iz27,checkpoint_sry6,Spreadsheet,SpreadsheetName,SpreadsheetRow,TrialNumber,ScreenNumber,ScreenName,ZoneName,ZoneType,ReactionTime,ReactionOnset,ResponseType,Response,Attempt,Correct,Incorrect,Dishonest,XCoordinate,YCoordinate,TimedOut,randomise_blocks,randomise_trials,display,ANSWER,left_button,right_button,advice,orderno,trialno,ShowProgressBar,image,prob_blue_corr,prob_group_corr,corr_ans,group_corr,group_choice,blue_pos,indiv_vol,soc_vol,ITI_1,ITI_2,ITI_3,ITI_4,condition
1,1673379782854,10/01/2023 19:43:02,1673379782785,0,10/01/2023 19:43:02,111483,6,task-rbyw,repeat-u7ds#1->-repeat-l3h2#1,26307575,BLIND,7766470,NaN,complete,NaN,63bdb974d4e9ba2e6133b400,computer,Desktop or Laptop,Mac OS 10.15.7,Safari 15.6.1,1920x1080,1679x1017,Start of Day 2,SLS,90,B,NaN,NaN,NaN,Pass,End of Day 1,Pass,NaN,Pass,NaN,Pass,NaN,Start of Day 2,schedule_B,,NaN,NaN,NaN,,,,NaN,NaN,NaN,,NaN,0,1,0,NaN,NaN,NaN,NaN,NaN,,,,,,NaN,NaN,NaN,NaN,NaN,NaN,NaN,NaN,NaN,NaN,,,NaN,NaN,NaN,NaN,
2,1673379785295,10/01/2023 19:43:05,1673379785264,0,10/01/2023 19:43:05,111483,6,task-rbyw,repeat-u7ds#1->-repeat-l3h2#1,26307575,BLIND,7766470,NaN,complete,NaN,63bdb974d4e9ba2e6133b400,computer,Desktop or Laptop,Mac OS 10.15.7,Safari 15.6.1,1920x1080,1679x1017,Start of Day 2,SLS,90,B,NaN,NaN,NaN,Pass,End of Day 1,Pass,NaN,Pass,NaN,Pass,NaN,Start of Day 2,schedule_B,schedule_B,1,1,1,Screen 1,Zone1,continue_button,2232,NaN,NaN,,NaN,0,1,0,NaN,NaN,NaN,NaN,NaN,getReadyb,,,,,1,NaN,NaN,NaN,NaN,NaN,NaN,NaN,NaN,NaN,,,NaN,NaN,NaN,NaN,
3,1673379787209,10/01/2023 19:43:07,1673379787165,0,10/01/2023 19:43:07,111483,6,task-rbyw,repeat-u7ds#1->-repeat-l3h2#1,26307575,BLIND,7766470,NaN,complete,NaN,63bdb974d4e9ba2e6133b400,computer,Desktop or Laptop,Mac OS 10.15.7,Safari 15.6.1,1920x1080,1679x1017,Start of Day 2,SLS,90,B,NaN,NaN,NaN,Pass,End of Day 1,Pass,NaN,Pass,NaN,Pass,NaN,Start of Day 2,schedule_B,schedule_B,1,1,2,Screen 2,Zone1,continue_button,1894,NaN,NaN,,NaN,0,1,0,NaN,NaN,NaN,NaN,NaN,getReadyb,,,,,1,NaN,NaN,NaN,NaN,NaN,NaN,NaN,NaN,NaN,,,NaN,NaN,NaN,NaN,
4,1673379791889,10/01/2023 19:43:11,1673379791867,0,10/01/2023 19:43:11,111483,6,task-rbyw,repeat-u7ds#1->-repeat-l3h2#1,26307575,BLIND,7766470,NaN,complete,NaN,63bdb974d4e9ba2e6133b400,computer,Desktop or Laptop,Mac OS 10.15.7,Safari 15.6.1,1920x1080,1679x1017,Start of Day 2,SLS,90,B,NaN,NaN,NaN,Pass,End of Day 1,Pass,NaN,Pass,NaN,Pass,NaN,Start of Day 2,schedule_B,schedule_B,2,1,1,Screen 1,Zone1,continue_button,4684,NaN,NaN,,NaN,0,1,0,NaN,NaN,NaN,NaN,NaN,trial_right,greenBox.png,greenBox.png,blueBox.png,al2_uncon.png,2,1,NaN,NaN,0.85,0.15,0,0,1,0,Stable,Stable,3.471,0.525,1.66,2.529,inexpert
5,1673379792865,10/01/2023 19:43:12,1673379792853,0,10/01/2023 19:43:12,111483,6,task-rbyw,repeat-u7ds#1->-repeat-l3h2#1,26307575,BLIND,7766470,NaN,complete,NaN,63bdb974d4e9ba2e6133b400,computer,Desktop or Laptop,Mac OS 10.15.7,Safari 15.6.1,1920x1080,1679x1017,Start of Day 2,SLS,90,B,NaN,NaN,NaN,Pass,End of Day 1,Pass,NaN,Pass,NaN,Pass,NaN,Start of Day 2,schedule_B,schedule_B,2,1,2,individual,Zone4,timelimit_screen,1001,NaN,NaN,,NaN,0,1,0,NaN,NaN,1,NaN,NaN,trial_right,greenBox.png,greenBox.png,blueBox.png,al2_uncon.png,2,1,NaN,NaN,0.85,0.15,0,0,1,0,Stable,Stable,3.471,0.525,1.66,2.529,inexpert
6,1673379794410,10/01/2023 19:43:14,1673379794354,0,10/01/2023 19:43:14,111483,6,task-rbyw,repeat-u7ds#1->-repeat-l3h2#1,26307575,BLIND,7766470,NaN,complete,NaN,63bdb974d4e9ba2e6133b400,computer,Desktop or Laptop,Mac OS 10.15.7,Safari 15.6.1,1920x1080,1679x1017,Start of Day 2,SLS,90,B,NaN,NaN,NaN,Pass,End of Day 1,Pass,NaN,Pass,NaN,Pass,NaN,Start of Day 2,schedule_B,schedule_B,2,1,3,offer,Zone3,response_button_image,1491,NaN,NaN,blueBox.png,1,0,1,0,NaN,NaN,NaN,NaN,NaN,trial_right,greenBox.png,greenBox.png,blueBox.png,al2_uncon.png,2,1,NaN,NaN,0.85,0.15,0,0,1,0,Stable,Stable,3.471,0.525,1.66,2.529,inexpert
7,1673379796378,10/01/2023 19:43:16,1673379796339,0,10/01/2023 19:43:16,111483,6,task-rbyw,repeat-u7ds#1->-repeat-l3h2#1,26307575,BLIND,7766470,NaN,complete,NaN,63bdb974d4e9ba2e6133b400,computer,Desktop or Laptop,Mac OS 10.15.7,Safari 15.6.1,1920x1080,1679x1017,Start of Day 2,SLS,90,B,NaN,NaN,NaN,Pass,End of Day 1,Pass,NaN,Pass,NaN,Pass,NaN,Start of Day 2,schedule_B,schedule_B,2,1,5,feedback_r,Zone7,timelimit_screen,2003,NaN,NaN,,NaN,0,1,0,NaN,NaN,1,NaN,NaN,trial_right,greenBox.png,greenBox.png,blueBox.png,al2_uncon.png,2,1,NaN,NaN,0.85,0.15,0,0,1,0,Stable,Stable,3.471,0.525,1.66,2.529,inexpert
8,1673379796520,10/01/2023 19:43:16,1673379796489,0,10/01/2023 19:43:16,111483,6,task-rbyw,repeat-u7ds#1->-repeat-l3h2#1,26307575,BLIND,7766470,NaN,complete,NaN,63bdb974d4e9ba2e6133b400,computer,Desktop or Laptop,Mac OS 10.15.7,Safari 15.6.1,1920x1080,1679x1017,Start of Day 2,SLS,90,B,NaN,NaN,NaN,Pass,End of Day 1,Pass,NaN,Pass,NaN,Pass,NaN,Start of Day 2,schedule_B,schedule_B,2,1,6,end,Zone1,timelimit_screen,150,NaN,NaN,,NaN,0,1,0,NaN,NaN,1,NaN,NaN,trial_right,greenBox.png,greenBox.png,blueBox.png,al2_uncon.png,2,1,NaN,NaN,0.85,0.15,0,0,1,0,Stable,Stable,3.471,0.525,1.66,2.529,inexpert
9,1673379798928,10/01/2023 19:43:18,1673379798899,0,10/01/2023 19:43:18,111483,6,task-rbyw,repeat-u7ds#1->-repeat-l3h2#1,26307575,BLIND,7766470,NaN,complete,NaN,63bdb974d4e9ba2e6133b400,computer,Desktop or Laptop,Mac OS 10.15.7,Safari 15.6.1,1920x1080,1679x1017,Start of Day 2,SLS,90,B,NaN,NaN,NaN,Pass,End of Day 1,Pass,NaN,Pass,NaN,Pass,NaN,Start of Day 2,schedule_B,schedule_B,3,1,1,Screen 1,Zone1,continue_button,2394,NaN,NaN,,NaN,0,1,0,NaN,NaN,NaN,NaN,NaN,trial_left,blueBox.png,greenBox.png,blueBox.png,al2_uncon.png,3,2,NaN,NaN,0.85,0.15,1,0,0,0,Stable,Stable,1.782,1.168,1.168,2.462,inexpert
10,1673379799906,10/01/2023 19:43:19,1673379799893,0,10/01/2023 19:43:19,111483,6,task-rbyw,repeat-u7ds#1->-repeat-l3h2#1,26307575,BLIND,7766470,NaN,complete,NaN,63bdb974d4e9ba2e6133b400,computer,Desktop or Laptop,Mac OS 10.15.7,Safari 15.6.1,1920x1080,1679x1017,Start of Day 2,SLS,90,B,NaN,NaN,NaN,Pass,End of Day 1,Pass,NaN,Pass,NaN,Pass,NaN,Start of Day 2,schedule_B,schedule_B,3,1,2,individual,Zone4,timelimit_screen,1002,NaN,NaN,,NaN,0,1,0,NaN,NaN,1,NaN,NaN,trial_left,blueBox.png,greenBox.png,blueBox.png,al2_uncon.png,3,2,NaN,NaN,0.85,0.15,1,0,0,0,Stable,Stable,1.782,1.168,1.168,2.462,inexpert
11,1673379801654,10/01/2023 19:43:21,1673379801621,0,10/01/2023 19:43:21,111483,6,task-rbyw,repeat-u7ds#1->-repeat-l3h2#1,26307575,BLIND,7766470,NaN,complete,NaN,63bdb974d4e9ba2e6133b400,computer,Desktop or Laptop,Mac OS 10.15.7,Safari 15.6.1,1920x1080,1679x1017,Start of Day 2,SLS,90,B,NaN,NaN,NaN,Pass,End of Day 1,Pass,NaN,Pass,NaN,Pass,NaN,Start of Day 2,schedule_B,schedule_B,3,1,3,offer,Zone2,response_button_image,1719,NaN,NaN,greenBox.png,1,0,1,0,NaN,NaN,NaN,NaN,NaN,trial_left,blueBox.png,greenBox.png,blueBox.png,al2_uncon.png,3,2,NaN,NaN,0.85,0.15,1,0,0,0,Stable,Stable,1.782,1.168,1.168,2.462,inexpert
12,1673379803645,10/01/2023 19:43:23,1673379803614,0,10/01/2023 19:43:23,111483,6,task-rbyw,repeat-u7ds#1->-repeat-l3h2#1,26307575,BLIND,7766470,NaN,complete,NaN,63bdb974d4e9ba2e6133b400,computer,Desktop or Laptop,Mac OS 10.15.7,Safari 15.6.1,1920x1080,1679x1017,Start of Day 2,SLS,90,B,NaN,NaN,NaN,Pass,End of Day 1,Pass,NaN,Pass,NaN,Pass,NaN,Start of Day 2,schedule_B,schedule_B,3,1,4,feedback_l,Zone7,timelimit_screen,2002,NaN,NaN,,NaN,0,1,0,NaN,NaN,1,NaN,NaN,trial_left,blueBox.png,greenBox.png,blueBox.png,al2_uncon.png,3,2,NaN,NaN,0.85,0.15,1,0,0,0,Stable,Stable,1.782,1.168,1.168,2.462,inexpert
13,1673379803776,10/01/2023 19:43:23,1673379803764,0,10/01/2023 19:43:23,111483,6,task-rbyw,repeat-u7ds#1->-repeat-l3h2#1,26307575,BLIND,7766470,NaN,complete,NaN,63bdb974d4e9ba2e6133b400,computer,Desktop or Laptop,Mac OS 10.15.7,Safari 15.6.1,1920x1080,1679x1017,Start of Day 2,SLS,90,B,NaN,NaN,NaN,Pass,End of Day 1,Pass,NaN,Pass,NaN,Pass,NaN,Start of Day 2,schedule_B,schedule_B,3,1,6,end,Zone1,timelimit_screen,150,NaN,NaN,,NaN,0,1,0,NaN,NaN,1,NaN,NaN,trial_left,blueBox.png,greenBox.png,blueBox.png,al2_uncon.png,3,2,NaN,NaN,0.85,0.15,1,0,0,0,Stable,Stable,1.782,1.168,1.168,2.462,inexpert
14,1673379805158,10/01/2023 19:43:25,1673379805132,0,10/01/2023 19:43:25,111483,6,task-rbyw,repeat-u7ds#1->-repeat-l3h2#1,26307575,BLIND,7766470,NaN,complete,NaN,63bdb974d4e9ba2e6133b400,computer,Desktop or Laptop,Mac OS 10.15.7,Safari 15.6.1,1920x1080,1679x1017,Start of Day 2,SLS,90,B,NaN,NaN,NaN,Pass,End of Day 1,Pass,NaN,Pass,NaN,Pass,NaN,Start of Day 2,schedule_B,schedule_B,4,2,1,Screen 1,Zone1,continue_button,1349,NaN,NaN,,NaN,0,1,0,NaN,NaN,NaN,NaN,NaN,trial_left,blueBox.png,greenBox.png,blueBox.png,al2_uncon.png,4,3,NaN,NaN,0.85,0.15,1,0,0,0,Stable,Stable,1.983,1.181,0.538,1.588,inexpert
15,1673379806136,10/01/2023 19:43:26,1673379806116,0,10/01/2023 19:43:26,111483,6,task-rbyw,repeat-u7ds#1->-repeat-l3h2#1,26307575,BLIND,7766470,NaN,complete,NaN,63bdb974d4e9ba2e6133b400,computer,Desktop or Laptop,Mac OS 10.15.7,Safari 15.6.1,1920x1080,1679x1017,Start of Day 2,SLS,90,B,NaN,NaN,NaN,Pass,End of Day 1,Pass,NaN,Pass,NaN,Pass,NaN,Start of Day 2,schedule_B,schedule_B,4,2,2,individual,Zone4,timelimit_screen,1001,NaN,NaN,,NaN,0,1,0,NaN,NaN,1,NaN,NaN,trial_left,blueBox.png,greenBox.png,blueBox.png,al2_uncon.png,4,3,NaN,NaN,0.85,0.15,1,0,0,0,Stable,Stable,1.983,1.181,0.538,1.588,inexpert
16,1673379807050,10/01/2023 19:43:27,1673379807033,0,10/01/2023 19:43:27,111483,6,task-rbyw,repeat-u7ds#1->-repeat-l3h2#1,26307575,BLIND,7766470,NaN,complete,NaN,63bdb974d4e9ba2e6133b400,computer,Desktop or Laptop,Mac OS 10.15.7,Safari 15.6.1,1920x1080,1679x1017,Start of Day 2,SLS,90,B,NaN,NaN,NaN,Pass,End of Day 1,Pass,NaN,Pass,NaN,Pass,NaN,Start of Day 2,schedule_B,schedule_B,4,2,3,offer,bluebox,response_button_image,907,NaN,NaN,blueBox.png,1,1,0,0,NaN,NaN,NaN,NaN,NaN,trial_left,blueBox.png,greenBox.png,blueBox.png,al2_uncon.png,4,3,NaN,NaN,0.85,0.15,1,0,0,0,Stable,Stable,1.983,1.181,0.538,1.588,inexpert
17,1673379809044,10/01/2023 19:43:29,1673379809019,0,10/01/2023 19:43:29,111483,6,task-rbyw,repeat-u7ds#1->-repeat-l3h2#1,26307575,BLIND,7766470,NaN,complete,NaN,63bdb974d4e9ba2e6133b400,computer,Desktop or Laptop,Mac OS 10.15.7,Safari 15.6.1,1920x1080,1679x1017,Start of Day 2,SLS,90,B,NaN,NaN,NaN,Pass,End of Day 1,Pass,NaN,Pass,NaN,Pass,NaN,Start of Day 2,schedule_B,schedule_B,4,2,5,feedback_r,Zone7,timelimit_screen,2002,NaN,NaN,,NaN,0,1,0,NaN,NaN,1,NaN,NaN,trial_left,blueBox.png,greenBox.png,blueBox.png,al2_uncon.png,4,3,NaN,NaN,0.85,0.15,1,0,0,0,Stable,Stable,1.983,1.181,0.538,1.588,inexpert
18,1673379809198,10/01/2023 19:43:29,1673379809169,0,10/01/2023 19:43:29,111483,6,task-rbyw,repeat-u7ds#1->-repeat-l3h2#1,26307575,BLIND,7766470,NaN,complete,NaN,63bdb974d4e9ba2e6133b400,computer,Desktop or Laptop,Mac OS 10.15.7,Safari 15.6.1,1920x1080,1679x1017,Start of Day 2,SLS,90,B,NaN,NaN,NaN,Pass,End of Day 1,Pass,NaN,Pass,NaN,Pass,NaN,Start of Day 2,schedule_B,schedule_B,4,2,6,end,Zone1,timelimit_screen,150,NaN,NaN,,NaN,0,1,0,NaN,NaN,1,NaN,NaN,trial_left,blueBox.png,greenBox.png,blueBox.png,al2_uncon.png,4,3,NaN,NaN,0.85,0.15,1,0,0,0,Stable,Stable,1.983,1.181,0.538,1.588,inexpert
19,1673379811110,10/01/2023 19:43:31,1673379811094,0,10/01/2023 19:43:31,111483,6,task-rbyw,repeat-u7ds#1->-repeat-l3h2#1,26307575,BLIND,7766470,NaN,complete,NaN,63bdb974d4e9ba2e6133b400,computer,Desktop or Laptop,Mac OS 10.15.7,Safari 15.6.1,1920x1080,1679x1017,Start of Day 2,SLS,90,B,NaN,NaN,NaN,Pass,End of Day 1,Pass,NaN,Pass,NaN,Pass,NaN,Start of Day 2,schedule_B,schedule_B,5,2,1,Screen 1,Zone1,continue_button,1908,NaN,NaN,,NaN,0,1,0,NaN,NaN,NaN,NaN,NaN,trial_right,greenBox.png,greenBox.png,blueBox.png,al2_uncon.png,5,4,NaN,NaN,0.85,0.15,0,0,1,0,Stable,Stable,1.529,0.891,1.004,1,inexpert
20,1673379812112,10/01/2023 19:43:32,1673379812089,0,10/01/2023 19:43:32,111483,6,task-rbyw,repeat-u7ds#1->-repeat-l3h2#1,26307575,BLIND,7766470,NaN,complete,NaN,63bdb974d4e9ba2e6133b400,computer,Desktop or Laptop,Mac OS 10.15.7,Safari 15.6.1,1920x1080,1679x1017,Start of Day 2,SLS,90,B,NaN,NaN,NaN,Pass,End of Day 1,Pass,NaN,Pass,NaN,Pass,NaN,Start of Day 2,schedule_B,schedule_B,5,2,2,individual,Zone4,timelimit_screen,1002,NaN,NaN,,NaN,0,1,0,NaN,NaN,1,NaN,NaN,trial_right,greenBox.png,greenBox.png,blueBox.png,al2_uncon.png,5,4,NaN,NaN,0.85,0.15,0,0,1,0,Stable,Stable,1.529,0.891,1.004,1,inexpert
21,1673379813518,10/01/2023 19:43:33,1673379813501,0,10/01/2023 19:43:33,111483,6,task-rbyw,repeat-u7ds#1->-repeat-l3h2#1,26307575,BLIND,7766470,NaN,complete,NaN,63bdb974d4e9ba2e6133b400,computer,Desktop or Laptop,Mac OS 10.15.7,Safari 15.6.1,1920x1080,1679x1017,Start of Day 2,SLS,90,B,NaN,NaN,NaN,Pass,End of Day 1,Pass,NaN,Pass,NaN,Pass,NaN,Start of Day 2,schedule_B,schedule_B,5,2,3,offer,Zone2,response_button_image,1403,NaN,NaN,greenBox.png,1,1,0,0,NaN,NaN,NaN,NaN,NaN,trial_right,greenBox.png,greenBox.png,blueBox.png,al2_uncon.png,5,4,NaN,NaN,0.85,0.15,0,0,1,0,Stable,Stable,1.529,0.891,1.004,1,inexpert
22,1673379815516,10/01/2023 19:43:35,1673379815493,0,10/01/2023 19:43:35,111483,6,task-rbyw,repeat-u7ds#1->-repeat-l3h2#1,26307575,BLIND,7766470,NaN,complete,NaN,63bdb974d4e9ba2e6133b400,computer,Desktop or Laptop,Mac OS 10.15.7,Safari 15.6.1,1920x1080,1679x1017,Start of Day 2,SLS,90,B,NaN,NaN,NaN,Pass,End of Day 1,Pass,NaN,Pass,NaN,Pass,NaN,Start of Day 2,schedule_B,schedule_B,5,2,4,feedback_l,Zone7,timelimit_screen,2002,NaN,NaN,,NaN,0,1,0,NaN,NaN,1,NaN,NaN,trial_right,greenBox.png,greenBox.png,blueBox.png,al2_uncon.png,5,4,NaN,NaN,0.85,0.15,0,0,1,0,Stable,Stable,1.529,0.891,1.004,1,inexpert
23,1673379815673,10/01/2023 19:43:35,1673379815643,0,10/01/2023 19:43:35,111483,6,task-rbyw,repeat-u7ds#1->-repeat-l3h2#1,26307575,BLIND,7766470,NaN,complete,NaN,63bdb974d4e9ba2e6133b400,computer,Desktop or Laptop,Mac OS 10.15.7,Safari 15.6.1,1920x1080,1679x1017,Start of Day 2,SLS,90,B,NaN,NaN,NaN,Pass,End of Day 1,Pass,NaN,Pass,NaN,Pass,NaN,Start of Day 2,schedule_B,schedule_B,5,2,6,end,Zone1,timelimit_screen,150,NaN,NaN,,NaN,0,1,0,NaN,NaN,1,NaN,NaN,trial_right,greenBox.png,greenBox.png,blueBox.png,al2_uncon.png,5,4,NaN,NaN,0.85,0.15,0,0,1,0,Stable,Stable,1.529,0.891,1.004,1,inexpert
24,1673379816994,10/01/2023 19:43:36,1673379816978,0,10/01/2023 19:43:36,111483,6,task-rbyw,repeat-u7ds#1->-repeat-l3h2#1,26307575,BLIND,7766470,NaN,complete,NaN,63bdb974d4e9ba2e6133b400,computer,Desktop or Laptop,Mac OS 10.15.7,Safari 15.6.1,1920x1080,1679x1017,Start of Day 2,SLS,90,B,NaN,NaN,NaN,Pass,End of Day 1,Pass,NaN,Pass,NaN,Pass,NaN,Start of Day 2,schedule_B,schedule_B,6,3,1,Screen 1,Zone1,continue_button,1320,NaN,NaN,,NaN,0,1,0,NaN,NaN,NaN,NaN,NaN,trial_left,blueBox.png,greenBox.png,blueBox.png,al2_uncon.png,6,5,NaN,NaN,0.85,0.15,1,0,0,0,Stable,Stable,1.832,1.118,0.752,1.79,inexpert
25,1673379817971,10/01/2023 19:43:37,1673379817961,0,10/01/2023 19:43:37,111483,6,task-rbyw,repeat-u7ds#1->-repeat-l3h2#1,26307575,BLIND,7766470,NaN,complete,NaN,63bdb974d4e9ba2e6133b400,computer,Desktop or Laptop,Mac OS 10.15.7,Safari 15.6.1,1920x1080,1679x1017,Start of Day 2,SLS,90,B,NaN,NaN,NaN,Pass,End of Day 1,Pass,NaN,Pass,NaN,Pass,NaN,Start of Day 2,schedule_B,schedule_B,6,3,2,individual,Zone4,timelimit_screen,1001,NaN,NaN,,NaN,0,1,0,NaN,NaN,1,NaN,NaN,trial_left,blueBox.png,greenBox.png,blueBox.png,al2_uncon.png,6,5,NaN,NaN,0.85,0.15,1,0,0,0,Stable,Stable,1.832,1.118,0.752,1.79,inexpert
26,1673379820225,10/01/2023 19:43:40,1673379820195,0,10/01/2023 19:43:40,111483,6,task-rbyw,repeat-u7ds#1->-repeat-l3h2#1,26307575,BLIND,7766470,NaN,complete,NaN,63bdb974d4e9ba2e6133b400,computer,Desktop or Laptop,Mac OS 10.15.7,Safari 15.6.1,1920x1080,1679x1017,Start of Day 2,SLS,90,B,NaN,NaN,NaN,Pass,End of Day 1,Pass,NaN,Pass,NaN,Pass,NaN,Start of Day 2,schedule_B,schedule_B,6,3,3,offer,bluebox,response_button_image,2225,NaN,NaN,blueBox.png,1,1,0,0,NaN,NaN,NaN,NaN,NaN,trial_left,blueBox.png,greenBox.png,blueBox.png,al2_uncon.png,6,5,NaN,NaN,0.85,0.15,1,0,0,0,Stable,Stable,1.832,1.118,0.752,1.79,inexpert
27,1673379822216,10/01/2023 19:43:42,1673379822183,0,10/01/2023 19:43:42,111483,6,task-rbyw,repeat-u7ds#1->-repeat-l3h2#1,26307575,BLIND,7766470,NaN,complete,NaN,63bdb974d4e9ba2e6133b400,computer,Desktop or Laptop,Mac OS 10.15.7,Safari 15.6.1,1920x1080,1679x1017,Start of Day 2,SLS,90,B,NaN,NaN,NaN,Pass,End of Day 1,Pass,NaN,Pass,NaN,Pass,NaN,Start of Day 2,schedule_B,schedule_B,6,3,5,feedback_r,Zone7,timelimit_screen,2001,NaN,NaN,,NaN,0,1,0,NaN,NaN,1,NaN,NaN,trial_left,blueBox.png,greenBox.png,blueBox.png,al2_uncon.png,6,5,NaN,NaN,0.85,0.15,1,0,0,0,Stable,Stable,1.832,1.118,0.752,1.79,inexpert
28,1673379822364,10/01/2023 19:43:42,1673379822333,0,10/01/2023 19:43:42,111483,6,task-rbyw,repeat-u7ds#1->-repeat-l3h2#1,26307575,BLIND,7766470,NaN,complete,NaN,63bdb974d4e9ba2e6133b400,computer,Desktop or Laptop,Mac OS 10.15.7,Safari 15.6.1,1920x1080,1679x1017,Start of Day 2,SLS,90,B,NaN,NaN,NaN,Pass,End of Day 1,Pass,NaN,Pass,NaN,Pass,NaN,Start of Day 2,schedule_B,schedule_B,6,3,6,end,Zone1,timelimit_screen,151,NaN,NaN,,NaN,0,1,0,NaN,NaN,1,NaN,NaN,trial_left,blueBox.png,greenBox.png,blueBox.png,al2_uncon.png,6,5,NaN,NaN,0.85,0.15,1,0,0,0,Stable,Stable,1.832,1.118,0.752,1.79,inexpert
29,1673379823647,10/01/2023 19:43:43,1673379823435,0,10/01/2023 19:43:43,111483,6,task-rbyw,repeat-u7ds#1->-repeat-l3h2#1,26307575,BLIND,7766470,NaN,complete,NaN,63bdb974d4e9ba2e6133b400,computer,Desktop or Laptop,Mac OS 10.15.7,Safari 15.6.1,1920x1080,1679x1017,Start of Day 2,SLS,90,B,NaN,NaN,NaN,Pass,End of Day 1,Pass,NaN,Pass,NaN,Pass,NaN,Start of Day 2,schedule_B,schedule_B,7,3,1,Screen 1,Zone1,continue_button,1083,NaN,NaN,,NaN,0,1,0,NaN,NaN,NaN,NaN,NaN,trial_right,greenBox.png,greenBox.png,blueBox.png,al2_uncon.png,7,6,NaN,NaN,0.15,0.15,0,0,1,0,Stable,Stable,3.294,0.815,1.282,2.664,inexpert
30,1673379824462,10/01/2023 19:43:44,1673379824436,0,10/01/2023 19:43:44,111483,6,task-rbyw,repeat-u7ds#1->-repeat-l3h2#1,26307575,BLIND,7766470,NaN,complete,NaN,63bdb974d4e9ba2e6133b400,computer,Desktop or Laptop,Mac OS 10.15.7,Safari 15.6.1,1920x1080,1679x1017,Start of Day 2,SLS,90,B,NaN,NaN,NaN,Pass,End of Day 1,Pass,NaN,Pass,NaN,Pass,NaN,Start of Day 2,schedule_B,schedule_B,7,3,2,individual,Zone4,timelimit_screen,1002,NaN,NaN,,NaN,0,1,0,NaN,NaN,1,NaN,NaN,trial_right,greenBox.png,greenBox.png,blueBox.png,al2_uncon.png,7,6,NaN,NaN,0.15,0.15,0,0,1,0,Stable,Stable,3.294,0.815,1.282,2.664,inexpert
31,1673379826542,10/01/2023 19:43:46,1673379826529,0,10/01/2023 19:43:46,111483,6,task-rbyw,repeat-u7ds#1->-repeat-l3h2#1,26307575,BLIND,7766470,NaN,complete,NaN,63bdb974d4e9ba2e6133b400,computer,Desktop or Laptop,Mac OS 10.15.7,Safari 15.6.1,1920x1080,1679x1017,Start of Day 2,SLS,90,B,NaN,NaN,NaN,Pass,End of Day 1,Pass,NaN,Pass,NaN,Pass,NaN,Start of Day 2,schedule_B,schedule_B,7,3,3,offer,Zone2,response_button_image,2084,NaN,NaN,greenBox.png,1,1,0,0,NaN,NaN,NaN,NaN,NaN,trial_right,greenBox.png,greenBox.png,blueBox.png,al2_uncon.png,7,6,NaN,NaN,0.15,0.15,0,0,1,0,Stable,Stable,3.294,0.815,1.282,2.664,inexpert
32,1673379828557,10/01/2023 19:43:48,1673379828523,0,10/01/2023 19:43:48,111483,6,task-rbyw,repeat-u7ds#1->-repeat-l3h2#1,26307575,BLIND,7766470,NaN,complete,NaN,63bdb974d4e9ba2e6133b400,computer,Desktop or Laptop,Mac OS 10.15.7,Safari 15.6.1,1920x1080,1679x1017,Start of Day 2,SLS,90,B,NaN,NaN,NaN,Pass,End of Day 1,Pass,NaN,Pass,NaN,Pass,NaN,Start of Day 2,schedule_B,schedule_B,7,3,4,feedback_l,Zone7,timelimit_screen,2002,NaN,NaN,,NaN,0,1,0,NaN,NaN,1,NaN,NaN,trial_right,greenBox.png,greenBox.png,blueBox.png,al2_uncon.png,7,6,NaN,NaN,0.15,0.15,0,0,1,0,Stable,Stable,3.294,0.815,1.282,2.664,inexpert
33,1673379828697,10/01/2023 19:43:48,1673379828673,0,10/01/2023 19:43:48,111483,6,task-rbyw,repeat-u7ds#1->-repeat-l3h2#1,26307575,BLIND,7766470,NaN,complete,NaN,63bdb974d4e9ba2e6133b400,computer,Desktop or Laptop,Mac OS 10.15.7,Safari 15.6.1,1920x1080,1679x1017,Start of Day 2,SLS,90,B,NaN,NaN,NaN,Pass,End of Day 1,Pass,NaN,Pass,NaN,Pass,NaN,Start of Day 2,schedule_B,schedule_B,7,3,6,end,Zone1,timelimit_screen,150,NaN,NaN,,NaN,0,1,0,NaN,NaN,1,NaN,NaN,trial_right,greenBox.png,greenBox.png,blueBox.png,al2_uncon.png,7,6,NaN,NaN,0.15,0.15,0,0,1,0,Stable,Stable,3.294,0.815,1.282,2.664,inexpert
34,1673379830455,10/01/2023 19:43:50,1673379830422,0,10/01/2023 19:43:50,111483,6,task-rbyw,repeat-u7ds#1->-repeat-l3h2#1,26307575,BLIND,7766470,NaN,complete,NaN,63bdb974d4e9ba2e6133b400,computer,Desktop or Laptop,Mac OS 10.15.7,Safari 15.6.1,1920x1080,1679x1017,Start of Day 2,SLS,90,B,NaN,NaN,NaN,Pass,End of Day 1,Pass,NaN,Pass,NaN,Pass,NaN,Start of Day 2,schedule_B,schedule_B,8,4,1,Screen 1,Zone1,continue_button,1733,NaN,NaN,,NaN,0,1,0,NaN,NaN,NaN,NaN,NaN,trial_left,greenBox.png,blueBox.png,greenBox.png,al2_uncon.png,8,7,NaN,NaN,0.15,0.15,0,0,1,1,Stable,Stable,3.269,1.37,1.786,2.328,inexpert
35,1673379831435,10/01/2023 19:43:51,1673379831410,0,10/01/2023 19:43:51,111483,6,task-rbyw,repeat-u7ds#1->-repeat-l3h2#1,26307575,BLIND,7766470,NaN,complete,NaN,63bdb974d4e9ba2e6133b400,computer,Desktop or Laptop,Mac OS 10.15.7,Safari 15.6.1,1920x1080,1679x1017,Start of Day 2,SLS,90,B,NaN,NaN,NaN,Pass,End of Day 1,Pass,NaN,Pass,NaN,Pass,NaN,Start of Day 2,schedule_B,schedule_B,8,4,2,individual,Zone4,timelimit_screen,1001,NaN,NaN,,NaN,0,1,0,NaN,NaN,1,NaN,NaN,trial_left,greenBox.png,blueBox.png,greenBox.png,al2_uncon.png,8,7,NaN,NaN,0.15,0.15,0,0,1,1,Stable,Stable,3.269,1.37,1.786,2.328,inexpert
36,1673379832784,10/01/2023 19:43:52,1673379832761,0,10/01/2023 19:43:52,111483,6,task-rbyw,repeat-u7ds#1->-repeat-l3h2#1,26307575,BLIND,7766470,NaN,complete,NaN,63bdb974d4e9ba2e6133b400,computer,Desktop or Laptop,Mac OS 10.15.7,Safari 15.6.1,1920x1080,1679x1017,Start of Day 2,SLS,90,B,NaN,NaN,NaN,Pass,End of Day 1,Pass,NaN,Pass,NaN,Pass,NaN,Start of Day 2,schedule_B,schedule_B,8,4,3,offer,bluebox,response_button_image,1343,NaN,NaN,greenBox.png,1,1,0,0,NaN,NaN,NaN,NaN,NaN,trial_left,greenBox.png,blueBox.png,greenBox.png,al2_uncon.png,8,7,NaN,NaN,0.15,0.15,0,0,1,1,Stable,Stable,3.269,1.37,1.786,2.328,inexpert
37,1673379834777,10/01/2023 19:43:54,1673379834763,0,10/01/2023 19:43:54,111483,6,task-rbyw,repeat-u7ds#1->-repeat-l3h2#1,26307575,BLIND,7766470,NaN,complete,NaN,63bdb974d4e9ba2e6133b400,computer,Desktop or Laptop,Mac OS 10.15.7,Safari 15.6.1,1920x1080,1679x1017,Start of Day 2,SLS,90,B,NaN,NaN,NaN,Pass,End of Day 1,Pass,NaN,Pass,NaN,Pass,NaN,Start of Day 2,schedule_B,schedule_B,8,4,5,feedback_r,Zone7,timelimit_screen,2003,NaN,NaN,,NaN,0,1,0,NaN,NaN,1,NaN,NaN,trial_left,greenBox.png,blueBox.png,greenBox.png,al2_uncon.png,8,7,NaN,NaN,0.15,0.15,0,0,1,1,Stable,Stable,3.269,1.37,1.786,2.328,inexpert
38,1673379834949,10/01/2023 19:43:54,1673379834913,0,10/01/2023 19:43:54,111483,6,task-rbyw,repeat-u7ds#1->-repeat-l3h2#1,26307575,BLIND,7766470,NaN,complete,NaN,63bdb974d4e9ba2e6133b400,computer,Desktop or Laptop,Mac OS 10.15.7,Safari 15.6.1,1920x1080,1679x1017,Start of Day 2,SLS,90,B,NaN,NaN,NaN,Pass,End of Day 1,Pass,NaN,Pass,NaN,Pass,NaN,Start of Day 2,schedule_B,schedule_B,8,4,6,end,Zone1,timelimit_screen,151,NaN,NaN,,NaN,0,1,0,NaN,NaN,1,NaN,NaN,trial_left,greenBox.png,blueBox.png,greenBox.png,al2_uncon.png,8,7,NaN,NaN,0.15,0.15,0,0,1,1,Stable,Stable,3.269,1.37,1.786,2.328,inexpert
39,1673379835923,10/01/2023 19:43:55,1673379835900,0,10/01/2023 19:43:55,111483,6,task-rbyw,repeat-u7ds#1->-repeat-l3h2#1,26307575,BLIND,7766470,NaN,complete,NaN,63bdb974d4e9ba2e6133b400,computer,Desktop or Laptop,Mac OS 10.15.7,Safari 15.6.1,1920x1080,1679x1017,Start of Day 2,SLS,90,B,NaN,NaN,NaN,Pass,End of Day 1,Pass,NaN,Pass,NaN,Pass,NaN,Start of Day 2,schedule_B,schedule_B,9,4,1,Screen 1,Zone1,continue_button,972,NaN,NaN,,NaN,0,1,0,NaN,NaN,NaN,NaN,NaN,trial_right,blueBox.png,blueBox.png,greenBox.png,al2_uncon.png,9,8,NaN,NaN,0.15,0.15,1,0,0,1,Stable,Stable,3.975,0.576,1.256,1.807,inexpert
40,1673379836919,10/01/2023 19:43:56,1673379836899,0,10/01/2023 19:43:56,111483,6,task-rbyw,repeat-u7ds#1->-repeat-l3h2#1,26307575,BLIND,7766470,NaN,complete,NaN,63bdb974d4e9ba2e6133b400,computer,Desktop or Laptop,Mac OS 10.15.7,Safari 15.6.1,1920x1080,1679x1017,Start of Day 2,SLS,90,B,NaN,NaN,NaN,Pass,End of Day 1,Pass,NaN,Pass,NaN,Pass,NaN,Start of Day 2,schedule_B,schedule_B,9,4,2,individual,Zone4,timelimit_screen,1001,NaN,NaN,,NaN,0,1,0,NaN,NaN,1,NaN,NaN,trial_right,blueBox.png,blueBox.png,greenBox.png,al2_uncon.png,9,8,NaN,NaN,0.15,0.15,1,0,0,1,Stable,Stable,3.975,0.576,1.256,1.807,inexpert
41,1673379838233,10/01/2023 19:43:58,1673379838206,0,10/01/2023 19:43:58,111483,6,task-rbyw,repeat-u7ds#1->-repeat-l3h2#1,26307575,BLIND,7766470,NaN,complete,NaN,63bdb974d4e9ba2e6133b400,computer,Desktop or Laptop,Mac OS 10.15.7,Safari 15.6.1,1920x1080,1679x1017,Start of Day 2,SLS,90,B,NaN,NaN,NaN,Pass,End of Day 1,Pass,NaN,Pass,NaN,Pass,NaN,Start of Day 2,schedule_B,schedule_B,9,4,3,offer,Zone2,response_button_image,1299,NaN,NaN,blueBox.png,1,1,0,0,NaN,NaN,NaN,NaN,NaN,trial_right,blueBox.png,blueBox.png,greenBox.png,al2_uncon.png,9,8,NaN,NaN,0.15,0.15,1,0,0,1,Stable,Stable,3.975,0.576,1.256,1.807,inexpert
42,1673379840229,10/01/2023 19:44:00,1673379840202,0,10/01/2023 19:44:00,111483,6,task-rbyw,repeat-u7ds#1->-repeat-l3h2#1,26307575,BLIND,7766470,NaN,complete,NaN,63bdb974d4e9ba2e6133b400,computer,Desktop or Laptop,Mac OS 10.15.7,Safari 15.6.1,1920x1080,1679x1017,Start of Day 2,SLS,90,B,NaN,NaN,NaN,Pass,End of Day 1,Pass,NaN,Pass,NaN,Pass,NaN,Start of Day 2,schedule_B,schedule_B,9,4,4,feedback_l,Zone7,timelimit_screen,2003,NaN,NaN,,NaN,0,1,0,NaN,NaN,1,NaN,NaN,trial_right,blueBox.png,blueBox.png,greenBox.png,al2_uncon.png,9,8,NaN,NaN,0.15,0.15,1,0,0,1,Stable,Stable,3.975,0.576,1.256,1.807,inexpert
43,1673379840384,10/01/2023 19:44:00,1673379840352,0,10/01/2023 19:44:00,111483,6,task-rbyw,repeat-u7ds#1->-repeat-l3h2#1,26307575,BLIND,7766470,NaN,complete,NaN,63bdb974d4e9ba2e6133b400,computer,Desktop or Laptop,Mac OS 10.15.7,Safari 15.6.1,1920x1080,1679x1017,Start of Day 2,SLS,90,B,NaN,NaN,NaN,Pass,End of Day 1,Pass,NaN,Pass,NaN,Pass,NaN,Start of Day 2,schedule_B,schedule_B,9,4,6,end,Zone1,timelimit_screen,150,NaN,NaN,,NaN,0,1,0,NaN,NaN,1,NaN,NaN,trial_right,blueBox.png,blueBox.png,greenBox.png,al2_uncon.png,9,8,NaN,NaN,0.15,0.15,1,0,0,1,Stable,Stable,3.975,0.576,1.256,1.807,inexpert
44,1673379841367,10/01/2023 19:44:01,1673379841345,0,10/01/2023 19:44:01,111483,6,task-rbyw,repeat-u7ds#1->-repeat-l3h2#1,26307575,BLIND,7766470,NaN,complete,NaN,63bdb974d4e9ba2e6133b400,computer,Desktop or Laptop,Mac OS 10.15.7,Safari 15.6.1,1920x1080,1679x1017,Start of Day 2,SLS,90,B,NaN,NaN,NaN,Pass,End of Day 1,Pass,NaN,Pass,NaN,Pass,NaN,Start of Day 2,schedule_B,schedule_B,10,5,1,Screen 1,Zone1,continue_button,978,NaN,NaN,,NaN,0,1,0,NaN,NaN,NaN,NaN,NaN,trial_left,greenBox.png,blueBox.png,greenBox.png,al2_uncon.png,10,9,NaN,NaN,0.15,0.15,0,0,1,1,Stable,Stable,3.798,1.055,1.559,2.042,inexpert
45,1673379842374,10/01/2023 19:44:02,1673379842338,0,10/01/2023 19:44:02,111483,6,task-rbyw,repeat-u7ds#1->-repeat-l3h2#1,26307575,BLIND,7766470,NaN,complete,NaN,63bdb974d4e9ba2e6133b400,computer,Desktop or Laptop,Mac OS 10.15.7,Safari 15.6.1,1920x1080,1679x1017,Start of Day 2,SLS,90,B,NaN,NaN,NaN,Pass,End of Day 1,Pass,NaN,Pass,NaN,Pass,NaN,Start of Day 2,schedule_B,schedule_B,10,5,2,individual,Zone4,timelimit_screen,1001,NaN,NaN,,NaN,0,1,0,NaN,NaN,1,NaN,NaN,trial_left,greenBox.png,blueBox.png,greenBox.png,al2_uncon.png,10,9,NaN,NaN,0.15,0.15,0,0,1,1,Stable,Stable,3.798,1.055,1.559,2.042,inexpert
46,1673379844135,10/01/2023 19:44:04,1673379844124,0,10/01/2023 19:44:04,111483,6,task-rbyw,repeat-u7ds#1->-repeat-l3h2#1,26307575,BLIND,7766470,NaN,complete,NaN,63bdb974d4e9ba2e6133b400,computer,Desktop or Laptop,Mac OS 10.15.7,Safari 15.6.1,1920x1080,1679x1017,Start of Day 2,SLS,90,B,NaN,NaN,NaN,Pass,End of Day 1,Pass,NaN,Pass,NaN,Pass,NaN,Start of Day 2,schedule_B,schedule_B,10,5,3,offer,bluebox,response_button_image,1776,NaN,NaN,greenBox.png,1,1,0,0,NaN,NaN,NaN,NaN,NaN,trial_left,greenBox.png,blueBox.png,greenBox.png,al2_uncon.png,10,9,NaN,NaN,0.15,0.15,0,0,1,1,Stable,Stable,3.798,1.055,1.559,2.042,inexpert
47,1673379846153,10/01/2023 19:44:06,1673379846125,0,10/01/2023 19:44:06,111483,6,task-rbyw,repeat-u7ds#1->-repeat-l3h2#1,26307575,BLIND,7766470,NaN,complete,NaN,63bdb974d4e9ba2e6133b400,computer,Desktop or Laptop,Mac OS 10.15.7,Safari 15.6.1,1920x1080,1679x1017,Start of Day 2,SLS,90,B,NaN,NaN,NaN,Pass,End of Day 1,Pass,NaN,Pass,NaN,Pass,NaN,Start of Day 2,schedule_B,schedule_B,10,5,5,feedback_r,Zone7,timelimit_screen,2003,NaN,NaN,,NaN,0,1,0,NaN,NaN,1,NaN,NaN,trial_left,greenBox.png,blueBox.png,greenBox.png,al2_uncon.png,10,9,NaN,NaN,0.15,0.15,0,0,1,1,Stable,Stable,3.798,1.055,1.559,2.042,inexpert
48,1673379846295,10/01/2023 19:44:06,1673379846275,0,10/01/2023 19:44:06,111483,6,task-rbyw,repeat-u7ds#1->-repeat-l3h2#1,26307575,BLIND,7766470,NaN,complete,NaN,63bdb974d4e9ba2e6133b400,computer,Desktop or Laptop,Mac OS 10.15.7,Safari 15.6.1,1920x1080,1679x1017,Start of Day 2,SLS,90,B,NaN,NaN,NaN,Pass,End of Day 1,Pass,NaN,Pass,NaN,Pass,NaN,Start of Day 2,schedule_B,schedule_B,10,5,6,end,Zone1,timelimit_screen,150,NaN,NaN,,NaN,0,1,0,NaN,NaN,1,NaN,NaN,trial_left,greenBox.png,blueBox.png,greenBox.png,al2_uncon.png,10,9,NaN,NaN,0.15,0.15,0,0,1,1,Stable,Stable,3.798,1.055,1.559,2.042,inexpert
49,1673379846939,10/01/2023 19:44:06,1673379846903,0,10/01/2023 19:44:06,111483,6,task-rbyw,repeat-u7ds#1->-repeat-l3h2#1,26307575,BLIND,7766470,NaN,complete,NaN,63bdb974d4e9ba2e6133b400,computer,Desktop or Laptop,Mac OS 10.15.7,Safari 15.6.1,1920x1080,1679x1017,Start of Day 2,SLS,90,B,NaN,NaN,NaN,Pass,End of Day 1,Pass,NaN,Pass,NaN,Pass,NaN,Start of Day 2,schedule_B,schedule_B,11,5,1,Screen 1,Zone1,continue_button,614.000000000007,NaN,NaN,,NaN,0,1,0,NaN,NaN,NaN,NaN,NaN,trial_right,greenBox.png,greenBox.png,blueBox.png,al2_uncon.png,21,10,NaN,NaN,0.15,0.15,0,0,1,0,Stable,Stable,1.857,0.5,1.294,2.916,inexpert
50,1673379847907,10/01/2023 19:44:07,1673379847894,0,10/01/2023 19:44:07,111483,6,task-rbyw,repeat-u7ds#1->-repeat-l3h2#1,26307575,BLIND,7766470,NaN,complete,NaN,63bdb974d4e9ba2e6133b400,computer,Desktop or Laptop,Mac OS 10.15.7,Safari 15.6.1,1920x1080,1679x1017,Start of Day 2,SLS,90,B,NaN,NaN,NaN,Pass,End of Day 1,Pass,NaN,Pass,NaN,Pass,NaN,Start of Day 2,schedule_B,schedule_B,11,5,2,individual,Zone4,timelimit_screen,1001,NaN,NaN,,NaN,0,1,0,NaN,NaN,1,NaN,NaN,trial_right,greenBox.png,greenBox.png,blueBox.png,al2_uncon.png,21,10,NaN,NaN,0.15,0.15,0,0,1,0,Stable,Stable,1.857,0.5,1.294,2.916,inexpert
51,1673379849250,10/01/2023 19:44:09,1673379849209,0,10/01/2023 19:44:09,111483,6,task-rbyw,repeat-u7ds#1->-repeat-l3h2#1,26307575,BLIND,7766470,NaN,complete,NaN,63bdb974d4e9ba2e6133b400,computer,Desktop or Laptop,Mac OS 10.15.7,Safari 15.6.1,1920x1080,1679x1017,Start of Day 2,SLS,90,B,NaN,NaN,NaN,Pass,End of Day 1,Pass,NaN,Pass,NaN,Pass,NaN,Start of Day 2,schedule_B,schedule_B,11,5,3,offer,Zone2,response_button_image,1306,NaN,NaN,greenBox.png,1,1,0,0,NaN,NaN,NaN,NaN,NaN,trial_right,greenBox.png,greenBox.png,blueBox.png,al2_uncon.png,21,10,NaN,NaN,0.15,0.15,0,0,1,0,Stable,Stable,1.857,0.5,1.294,2.916,inexpert
52,1673379851214,10/01/2023 19:44:11,1673379851197,0,10/01/2023 19:44:11,111483,6,task-rbyw,repeat-u7ds#1->-repeat-l3h2#1,26307575,BLIND,7766470,NaN,complete,NaN,63bdb974d4e9ba2e6133b400,computer,Desktop or Laptop,Mac OS 10.15.7,Safari 15.6.1,1920x1080,1679x1017,Start of Day 2,SLS,90,B,NaN,NaN,NaN,Pass,End of Day 1,Pass,NaN,Pass,NaN,Pass,NaN,Start of Day 2,schedule_B,schedule_B,11,5,4,feedback_l,Zone7,timelimit_screen,2002,NaN,NaN,,NaN,0,1,0,NaN,NaN,1,NaN,NaN,trial_right,greenBox.png,greenBox.png,blueBox.png,al2_uncon.png,21,10,NaN,NaN,0.15,0.15,0,0,1,0,Stable,Stable,1.857,0.5,1.294,2.916,inexpert
53,1673379851381,10/01/2023 19:44:11,1673379851347,0,10/01/2023 19:44:11,111483,6,task-rbyw,repeat-u7ds#1->-repeat-l3h2#1,26307575,BLIND,7766470,NaN,complete,NaN,63bdb974d4e9ba2e6133b400,computer,Desktop or Laptop,Mac OS 10.15.7,Safari 15.6.1,1920x1080,1679x1017,Start of Day 2,SLS,90,B,NaN,NaN,NaN,Pass,End of Day 1,Pass,NaN,Pass,NaN,Pass,NaN,Start of Day 2,schedule_B,schedule_B,11,5,6,end,Zone1,timelimit_screen,150,NaN,NaN,,NaN,0,1,0,NaN,NaN,1,NaN,NaN,trial_right,greenBox.png,greenBox.png,blueBox.png,al2_uncon.png,21,10,NaN,NaN,0.15,0.15,0,0,1,0,Stable,Stable,1.857,0.5,1.294,2.916,inexpert
54,1673379852392,10/01/2023 19:44:12,1673379852359,0,10/01/2023 19:44:12,111483,6,task-rbyw,repeat-u7ds#1->-repeat-l3h2#1,26307575,BLIND,7766470,NaN,complete,NaN,63bdb974d4e9ba2e6133b400,computer,Desktop or Laptop,Mac OS 10.15.7,Safari 15.6.1,1920x1080,1679x1017,Start of Day 2,SLS,90,B,NaN,NaN,NaN,Pass,End of Day 1,Pass,NaN,Pass,NaN,Pass,NaN,Start of Day 2,schedule_B,schedule_B,12,6,1,Screen 1,Zone1,continue_button,999,NaN,NaN,,NaN,0,1,0,NaN,NaN,NaN,NaN,NaN,trial_left,blueBox.png,greenBox.png,blueBox.png,al2_uncon.png,22,11,NaN,NaN,0.85,0.15,1,0,0,0,Stable,Stable,1.126,1.849,1.483,1.689,inexpert
55,1673379853368,10/01/2023 19:44:13,1673379853350,0,10/01/2023 19:44:13,111483,6,task-rbyw,repeat-u7ds#1->-repeat-l3h2#1,26307575,BLIND,7766470,NaN,complete,NaN,63bdb974d4e9ba2e6133b400,computer,Desktop or Laptop,Mac OS 10.15.7,Safari 15.6.1,1920x1080,1679x1017,Start of Day 2,SLS,90,B,NaN,NaN,NaN,Pass,End of Day 1,Pass,NaN,Pass,NaN,Pass,NaN,Start of Day 2,schedule_B,schedule_B,12,6,2,individual,Zone4,timelimit_screen,1002,NaN,NaN,,NaN,0,1,0,NaN,NaN,1,NaN,NaN,trial_left,blueBox.png,greenBox.png,blueBox.png,al2_uncon.png,22,11,NaN,NaN,0.85,0.15,1,0,0,0,Stable,Stable,1.126,1.849,1.483,1.689,inexpert
56,1673379854515,10/01/2023 19:44:14,1673379854497,0,10/01/2023 19:44:14,111483,6,task-rbyw,repeat-u7ds#1->-repeat-l3h2#1,26307575,BLIND,7766470,NaN,complete,NaN,63bdb974d4e9ba2e6133b400,computer,Desktop or Laptop,Mac OS 10.15.7,Safari 15.6.1,1920x1080,1679x1017,Start of Day 2,SLS,90,B,NaN,NaN,NaN,Pass,End of Day 1,Pass,NaN,Pass,NaN,Pass,NaN,Start of Day 2,schedule_B,schedule_B,12,6,3,offer,bluebox,response_button_image,1139,NaN,NaN,blueBox.png,1,1,0,0,NaN,NaN,NaN,NaN,NaN,trial_left,blueBox.png,greenBox.png,blueBox.png,al2_uncon.png,22,11,NaN,NaN,0.85,0.15,1,0,0,0,Stable,Stable,1.126,1.849,1.483,1.689,inexpert
57,1673379856499,10/01/2023 19:44:16,1673379856485,0,10/01/2023 19:44:16,111483,6,task-rbyw,repeat-u7ds#1->-repeat-l3h2#1,26307575,BLIND,7766470,NaN,complete,NaN,63bdb974d4e9ba2e6133b400,computer,Desktop or Laptop,Mac OS 10.15.7,Safari 15.6.1,1920x1080,1679x1017,Start of Day 2,SLS,90,B,NaN,NaN,NaN,Pass,End of Day 1,Pass,NaN,Pass,NaN,Pass,NaN,Start of Day 2,schedule_B,schedule_B,12,6,5,feedback_r,Zone7,timelimit_screen,2001,NaN,NaN,,NaN,0,1,0,NaN,NaN,1,NaN,NaN,trial_left,blueBox.png,greenBox.png,blueBox.png,al2_uncon.png,22,11,NaN,NaN,0.85,0.15,1,0,0,0,Stable,Stable,1.126,1.849,1.483,1.689,inexpert
58,1673379856664,10/01/2023 19:44:16,1673379856636,0,10/01/2023 19:44:16,111483,6,task-rbyw,repeat-u7ds#1->-repeat-l3h2#1,26307575,BLIND,7766470,NaN,complete,NaN,63bdb974d4e9ba2e6133b400,computer,Desktop or Laptop,Mac OS 10.15.7,Safari 15.6.1,1920x1080,1679x1017,Start of Day 2,SLS,90,B,NaN,NaN,NaN,Pass,End of Day 1,Pass,NaN,Pass,NaN,Pass,NaN,Start of Day 2,schedule_B,schedule_B,12,6,6,end,Zone1,timelimit_screen,151,NaN,NaN,,NaN,0,1,0,NaN,NaN,1,NaN,NaN,trial_left,blueBox.png,greenBox.png,blueBox.png,al2_uncon.png,22,11,NaN,NaN,0.85,0.15,1,0,0,0,Stable,Stable,1.126,1.849,1.483,1.689,inexpert
59,1673379857648,10/01/2023 19:44:17,1673379857624,0,10/01/2023 19:44:17,111483,6,task-rbyw,repeat-u7ds#1->-repeat-l3h2#1,26307575,BLIND,7766470,NaN,complete,NaN,63bdb974d4e9ba2e6133b400,computer,Desktop or Laptop,Mac OS 10.15.7,Safari 15.6.1,1920x1080,1679x1017,Start of Day 2,SLS,90,B,NaN,NaN,NaN,Pass,End of Day 1,Pass,NaN,Pass,NaN,Pass,NaN,Start of Day 2,schedule_B,schedule_B,13,7,1,Screen 1,Zone1,continue_button,973,NaN,NaN,,NaN,0,1,0,NaN,NaN,NaN,NaN,NaN,trial_left,blueBox.png,greenBox.png,blueBox.png,al2_uncon.png,23,12,NaN,NaN,0.85,0.15,1,0,0,0,Stable,Stable,2.361,0.992,0.5,1.975,inexpert
60,1673379858649,10/01/2023 19:44:18,1673379858622,0,10/01/2023 19:44:18,111483,6,task-rbyw,repeat-u7ds#1->-repeat-l3h2#1,26307575,BLIND,7766470,NaN,complete,NaN,63bdb974d4e9ba2e6133b400,computer,Desktop or Laptop,Mac OS 10.15.7,Safari 15.6.1,1920x1080,1679x1017,Start of Day 2,SLS,90,B,NaN,NaN,NaN,Pass,End of Day 1,Pass,NaN,Pass,NaN,Pass,NaN,Start of Day 2,schedule_B,schedule_B,13,7,2,individual,Zone4,timelimit_screen,1002,NaN,NaN,,NaN,0,1,0,NaN,NaN,1,NaN,NaN,trial_left,blueBox.png,greenBox.png,blueBox.png,al2_uncon.png,23,12,NaN,NaN,0.85,0.15,1,0,0,0,Stable,Stable,2.361,0.992,0.5,1.975,inexpert
61,1673379860308,10/01/2023 19:44:20,1673379860280,0,10/01/2023 19:44:20,111483,6,task-rbyw,repeat-u7ds#1->-repeat-l3h2#1,26307575,BLIND,7766470,NaN,complete,NaN,63bdb974d4e9ba2e6133b400,computer,Desktop or Laptop,Mac OS 10.15.7,Safari 15.6.1,1920x1080,1679x1017,Start of Day 2,SLS,90,B,NaN,NaN,NaN,Pass,End of Day 1,Pass,NaN,Pass,NaN,Pass,NaN,Start of Day 2,schedule_B,schedule_B,13,7,3,offer,bluebox,response_button_image,1649,NaN,NaN,blueBox.png,1,1,0,0,NaN,NaN,NaN,NaN,NaN,trial_left,blueBox.png,greenBox.png,blueBox.png,al2_uncon.png,23,12,NaN,NaN,0.85,0.15,1,0,0,0,Stable,Stable,2.361,0.992,0.5,1.975,inexpert
62,1673379862303,10/01/2023 19:44:22,1673379862276,0,10/01/2023 19:44:22,111483,6,task-rbyw,repeat-u7ds#1->-repeat-l3h2#1,26307575,BLIND,7766470,NaN,complete,NaN,63bdb974d4e9ba2e6133b400,computer,Desktop or Laptop,Mac OS 10.15.7,Safari 15.6.1,1920x1080,1679x1017,Start of Day 2,SLS,90,B,NaN,NaN,NaN,Pass,End of Day 1,Pass,NaN,Pass,NaN,Pass,NaN,Start of Day 2,schedule_B,schedule_B,13,7,5,feedback_r,Zone7,timelimit_screen,2003,NaN,NaN,,NaN,0,1,0,NaN,NaN,1,NaN,NaN,trial_left,blueBox.png,greenBox.png,blueBox.png,al2_uncon.png,23,12,NaN,NaN,0.85,0.15,1,0,0,0,Stable,Stable,2.361,0.992,0.5,1.975,inexpert
63,1673379862449,10/01/2023 19:44:22,1673379862426,0,10/01/2023 19:44:22,111483,6,task-rbyw,repeat-u7ds#1->-repeat-l3h2#1,26307575,BLIND,7766470,NaN,complete,NaN,63bdb974d4e9ba2e6133b400,computer,Desktop or Laptop,Mac OS 10.15.7,Safari 15.6.1,1920x1080,1679x1017,Start of Day 2,SLS,90,B,NaN,NaN,NaN,Pass,End of Day 1,Pass,NaN,Pass,NaN,Pass,NaN,Start of Day 2,schedule_B,schedule_B,13,7,6,end,Zone1,timelimit_screen,150,NaN,NaN,,NaN,0,1,0,NaN,NaN,1,NaN,NaN,trial_left,blueBox.png,greenBox.png,blueBox.png,al2_uncon.png,23,12,NaN,NaN,0.85,0.15,1,0,0,0,Stable,Stable,2.361,0.992,0.5,1.975,inexpert
64,1673379863501,10/01/2023 19:44:23,1673379863486,0,10/01/2023 19:44:23,111483,6,task-rbyw,repeat-u7ds#1->-repeat-l3h2#1,26307575,BLIND,7766470,NaN,complete,NaN,63bdb974d4e9ba2e6133b400,computer,Desktop or Laptop,Mac OS 10.15.7,Safari 15.6.1,1920x1080,1679x1017,Start of Day 2,SLS,90,B,NaN,NaN,NaN,Pass,End of Day 1,Pass,NaN,Pass,NaN,Pass,NaN,Start of Day 2,schedule_B,schedule_B,14,6,1,Screen 1,Zone1,continue_button,1043,NaN,NaN,,NaN,0,1,0,NaN,NaN,NaN,NaN,NaN,trial_right,blueBox.png,blueBox.png,greenBox.png,al2_uncon.png,24,13,NaN,NaN,0.85,0.15,1,0,0,1,Stable,Stable,1.05,1.95,1.319,1.487,inexpert
65,1673379864501,10/01/2023 19:44:24,1673379864478,0,10/01/2023 19:44:24,111483,6,task-rbyw,repeat-u7ds#1->-repeat-l3h2#1,26307575,BLIND,7766470,NaN,complete,NaN,63bdb974d4e9ba2e6133b400,computer,Desktop or Laptop,Mac OS 10.15.7,Safari 15.6.1,1920x1080,1679x1017,Start of Day 2,SLS,90,B,NaN,NaN,NaN,Pass,End of Day 1,Pass,NaN,Pass,NaN,Pass,NaN,Start of Day 2,schedule_B,schedule_B,14,6,2,individual,Zone4,timelimit_screen,1001,NaN,NaN,,NaN,0,1,0,NaN,NaN,1,NaN,NaN,trial_right,blueBox.png,blueBox.png,greenBox.png,al2_uncon.png,24,13,NaN,NaN,0.85,0.15,1,0,0,1,Stable,Stable,1.05,1.95,1.319,1.487,inexpert
66,1673379865855,10/01/2023 19:44:25,1673379865826,0,10/01/2023 19:44:25,111483,6,task-rbyw,repeat-u7ds#1->-repeat-l3h2#1,26307575,BLIND,7766470,NaN,complete,NaN,63bdb974d4e9ba2e6133b400,computer,Desktop or Laptop,Mac OS 10.15.7,Safari 15.6.1,1920x1080,1679x1017,Start of Day 2,SLS,90,B,NaN,NaN,NaN,Pass,End of Day 1,Pass,NaN,Pass,NaN,Pass,NaN,Start of Day 2,schedule_B,schedule_B,14,6,3,offer,Zone2,response_button_image,1339.00000000001,NaN,NaN,blueBox.png,1,1,0,0,NaN,NaN,NaN,NaN,NaN,trial_right,blueBox.png,blueBox.png,greenBox.png,al2_uncon.png,24,13,NaN,NaN,0.85,0.15,1,0,0,1,Stable,Stable,1.05,1.95,1.319,1.487,inexpert
67,1673379867844,10/01/2023 19:44:27,1673379867815,0,10/01/2023 19:44:27,111483,6,task-rbyw,repeat-u7ds#1->-repeat-l3h2#1,26307575,BLIND,7766470,NaN,complete,NaN,63bdb974d4e9ba2e6133b400,computer,Desktop or Laptop,Mac OS 10.15.7,Safari 15.6.1,1920x1080,1679x1017,Start of Day 2,SLS,90,B,NaN,NaN,NaN,Pass,End of Day 1,Pass,NaN,Pass,NaN,Pass,NaN,Start of Day 2,schedule_B,schedule_B,14,6,4,feedback_l,Zone7,timelimit_screen,2003,NaN,NaN,,NaN,0,1,0,NaN,NaN,1,NaN,NaN,trial_right,blueBox.png,blueBox.png,greenBox.png,al2_uncon.png,24,13,NaN,NaN,0.85,0.15,1,0,0,1,Stable,Stable,1.05,1.95,1.319,1.487,inexpert
68,1673379867980,10/01/2023 19:44:27,1673379867965,0,10/01/2023 19:44:27,111483,6,task-rbyw,repeat-u7ds#1->-repeat-l3h2#1,26307575,BLIND,7766470,NaN,complete,NaN,63bdb974d4e9ba2e6133b400,computer,Desktop or Laptop,Mac OS 10.15.7,Safari 15.6.1,1920x1080,1679x1017,Start of Day 2,SLS,90,B,NaN,NaN,NaN,Pass,End of Day 1,Pass,NaN,Pass,NaN,Pass,NaN,Start of Day 2,schedule_B,schedule_B,14,6,6,end,Zone1,timelimit_screen,150,NaN,NaN,,NaN,0,1,0,NaN,NaN,1,NaN,NaN,trial_right,blueBox.png,blueBox.png,greenBox.png,al2_uncon.png,24,13,NaN,NaN,0.85,0.15,1,0,0,1,Stable,Stable,1.05,1.95,1.319,1.487,inexpert
69,1673379869091,10/01/2023 19:44:29,1673379869066,0,10/01/2023 19:44:29,111483,6,task-rbyw,repeat-u7ds#1->-repeat-l3h2#1,26307575,BLIND,7766470,NaN,complete,NaN,63bdb974d4e9ba2e6133b400,computer,Desktop or Laptop,Mac OS 10.15.7,Safari 15.6.1,1920x1080,1679x1017,Start of Day 2,SLS,90,B,NaN,NaN,NaN,Pass,End of Day 1,Pass,NaN,Pass,NaN,Pass,NaN,Start of Day 2,schedule_B,schedule_B,15,7,1,Screen 1,Zone1,continue_button,1086.00000000001,NaN,NaN,,NaN,0,1,0,NaN,NaN,NaN,NaN,NaN,trial_right,blueBox.png,blueBox.png,greenBox.png,al2_uncon.png,25,14,NaN,NaN,0.85,0.15,1,0,0,1,Stable,Stable,3.395,0.84,0.803,1.252,inexpert
70,1673379870067,10/01/2023 19:44:30,1673379870050,0,10/01/2023 19:44:30,111483,6,task-rbyw,repeat-u7ds#1->-repeat-l3h2#1,26307575,BLIND,7766470,NaN,complete,NaN,63bdb974d4e9ba2e6133b400,computer,Desktop or Laptop,Mac OS 10.15.7,Safari 15.6.1,1920x1080,1679x1017,Start of Day 2,SLS,90,B,NaN,NaN,NaN,Pass,End of Day 1,Pass,NaN,Pass,NaN,Pass,NaN,Start of Day 2,schedule_B,schedule_B,15,7,2,individual,Zone4,timelimit_screen,1000,NaN,NaN,,NaN,0,1,0,NaN,NaN,1,NaN,NaN,trial_right,blueBox.png,blueBox.png,greenBox.png,al2_uncon.png,25,14,NaN,NaN,0.85,0.15,1,0,0,1,Stable,Stable,3.395,0.84,0.803,1.252,inexpert
71,1673379871355,10/01/2023 19:44:31,1673379871327,0,10/01/2023 19:44:31,111483,6,task-rbyw,repeat-u7ds#1->-repeat-l3h2#1,26307575,BLIND,7766470,NaN,complete,NaN,63bdb974d4e9ba2e6133b400,computer,Desktop or Laptop,Mac OS 10.15.7,Safari 15.6.1,1920x1080,1679x1017,Start of Day 2,SLS,90,B,NaN,NaN,NaN,Pass,End of Day 1,Pass,NaN,Pass,NaN,Pass,NaN,Start of Day 2,schedule_B,schedule_B,15,7,3,offer,Zone2,response_button_image,1268,NaN,NaN,blueBox.png,1,1,0,0,NaN,NaN,NaN,NaN,NaN,trial_right,blueBox.png,blueBox.png,greenBox.png,al2_uncon.png,25,14,NaN,NaN,0.85,0.15,1,0,0,1,Stable,Stable,3.395,0.84,0.803,1.252,inexpert
72,1673379873345,10/01/2023 19:44:33,1673379873321,0,10/01/2023 19:44:33,111483,6,task-rbyw,repeat-u7ds#1->-repeat-l3h2#1,26307575,BLIND,7766470,NaN,complete,NaN,63bdb974d4e9ba2e6133b400,computer,Desktop or Laptop,Mac OS 10.15.7,Safari 15.6.1,1920x1080,1679x1017,Start of Day 2,SLS,90,B,NaN,NaN,NaN,Pass,End of Day 1,Pass,NaN,Pass,NaN,Pass,NaN,Start of Day 2,schedule_B,schedule_B,15,7,4,feedback_l,Zone7,timelimit_screen,2003,NaN,NaN,,NaN,0,1,0,NaN,NaN,1,NaN,NaN,trial_right,blueBox.png,blueBox.png,greenBox.png,al2_uncon.png,25,14,NaN,NaN,0.85,0.15,1,0,0,1,Stable,Stable,3.395,0.84,0.803,1.252,inexpert
73,1673379873488,10/01/2023 19:44:33,1673379873471,0,10/01/2023 19:44:33,111483,6,task-rbyw,repeat-u7ds#1->-repeat-l3h2#1,26307575,BLIND,7766470,NaN,complete,NaN,63bdb974d4e9ba2e6133b400,computer,Desktop or Laptop,Mac OS 10.15.7,Safari 15.6.1,1920x1080,1679x1017,Start of Day 2,SLS,90,B,NaN,NaN,NaN,Pass,End of Day 1,Pass,NaN,Pass,NaN,Pass,NaN,Start of Day 2,schedule_B,schedule_B,15,7,6,end,Zone1,timelimit_screen,150,NaN,NaN,,NaN,0,1,0,NaN,NaN,1,NaN,NaN,trial_right,blueBox.png,blueBox.png,greenBox.png,al2_uncon.png,25,14,NaN,NaN,0.85,0.15,1,0,0,1,Stable,Stable,3.395,0.84,0.803,1.252,inexpert
74,1673379874648,10/01/2023 19:44:34,1673379874612,0,10/01/2023 19:44:34,111483,6,task-rbyw,repeat-u7ds#1->-repeat-l3h2#1,26307575,BLIND,7766470,NaN,complete,NaN,63bdb974d4e9ba2e6133b400,computer,Desktop or Laptop,Mac OS 10.15.7,Safari 15.6.1,1920x1080,1679x1017,Start of Day 2,SLS,90,B,NaN,NaN,NaN,Pass,End of Day 1,Pass,NaN,Pass,NaN,Pass,NaN,Start of Day 2,schedule_B,schedule_B,16,8,1,Screen 1,Zone1,continue_button,1127,NaN,NaN,,NaN,0,1,0,NaN,NaN,NaN,NaN,NaN,trial_left,blueBox.png,blueBox.png,greenBox.png,al2_uncon.png,26,15,NaN,NaN,0.85,0.15,1,1,1,1,Stable,Stable,2.689,1.067,1.697,2.731,inexpert
75,1673379875649,10/01/2023 19:44:35,1673379875606,0,10/01/2023 19:44:35,111483,6,task-rbyw,repeat-u7ds#1->-repeat-l3h2#1,26307575,BLIND,7766470,NaN,complete,NaN,63bdb974d4e9ba2e6133b400,computer,Desktop or Laptop,Mac OS 10.15.7,Safari 15.6.1,1920x1080,1679x1017,Start of Day 2,SLS,90,B,NaN,NaN,NaN,Pass,End of Day 1,Pass,NaN,Pass,NaN,Pass,NaN,Start of Day 2,schedule_B,schedule_B,16,8,2,individual,Zone4,timelimit_screen,1001,NaN,NaN,,NaN,0,1,0,NaN,NaN,1,NaN,NaN,trial_left,blueBox.png,blueBox.png,greenBox.png,al2_uncon.png,26,15,NaN,NaN,0.85,0.15,1,1,1,1,Stable,Stable,2.689,1.067,1.697,2.731,inexpert
76,1673379876542,10/01/2023 19:44:36,1673379876524,0,10/01/2023 19:44:36,111483,6,task-rbyw,repeat-u7ds#1->-repeat-l3h2#1,26307575,BLIND,7766470,NaN,complete,NaN,63bdb974d4e9ba2e6133b400,computer,Desktop or Laptop,Mac OS 10.15.7,Safari 15.6.1,1920x1080,1679x1017,Start of Day 2,SLS,90,B,NaN,NaN,NaN,Pass,End of Day 1,Pass,NaN,Pass,NaN,Pass,NaN,Start of Day 2,schedule_B,schedule_B,16,8,3,offer,bluebox,response_button_image,909,NaN,NaN,greenBox.png,1,0,1,0,NaN,NaN,NaN,NaN,NaN,trial_left,blueBox.png,blueBox.png,greenBox.png,al2_uncon.png,26,15,NaN,NaN,0.85,0.15,1,1,1,1,Stable,Stable,2.689,1.067,1.697,2.731,inexpert
77,1673379878615,10/01/2023 19:44:38,1673379878526,0,10/01/2023 19:44:38,111483,6,task-rbyw,repeat-u7ds#1->-repeat-l3h2#1,26307575,BLIND,7766470,NaN,complete,NaN,63bdb974d4e9ba2e6133b400,computer,Desktop or Laptop,Mac OS 10.15.7,Safari 15.6.1,1920x1080,1679x1017,Start of Day 2,SLS,90,B,NaN,NaN,NaN,Pass,End of Day 1,Pass,NaN,Pass,NaN,Pass,NaN,Start of Day 2,schedule_B,schedule_B,16,8,5,feedback_r,Zone7,timelimit_screen,2003,NaN,NaN,,NaN,0,1,0,NaN,NaN,1,NaN,NaN,trial_left,blueBox.png,blueBox.png,greenBox.png,al2_uncon.png,26,15,NaN,NaN,0.85,0.15,1,1,1,1,Stable,Stable,2.689,1.067,1.697,2.731,inexpert
78,1673379878951,10/01/2023 19:44:38,1673379878676,0,10/01/2023 19:44:38,111483,6,task-rbyw,repeat-u7ds#1->-repeat-l3h2#1,26307575,BLIND,7766470,NaN,complete,NaN,63bdb974d4e9ba2e6133b400,computer,Desktop or Laptop,Mac OS 10.15.7,Safari 15.6.1,1920x1080,1679x1017,Start of Day 2,SLS,90,B,NaN,NaN,NaN,Pass,End of Day 1,Pass,NaN,Pass,NaN,Pass,NaN,Start of Day 2,schedule_B,schedule_B,16,8,6,end,Zone1,timelimit_screen,150,NaN,NaN,,NaN,0,1,0,NaN,NaN,1,NaN,NaN,trial_left,blueBox.png,blueBox.png,greenBox.png,al2_uncon.png,26,15,NaN,NaN,0.85,0.15,1,1,1,1,Stable,Stable,2.689,1.067,1.697,2.731,inexpert
79,1673379879788,10/01/2023 19:44:39,1673379879764,0,10/01/2023 19:44:39,111483,6,task-rbyw,repeat-u7ds#1->-repeat-l3h2#1,26307575,BLIND,7766470,NaN,complete,NaN,63bdb974d4e9ba2e6133b400,computer,Desktop or Laptop,Mac OS 10.15.7,Safari 15.6.1,1920x1080,1679x1017,Start of Day 2,SLS,90,B,NaN,NaN,NaN,Pass,End of Day 1,Pass,NaN,Pass,NaN,Pass,NaN,Start of Day 2,schedule_B,schedule_B,17,9,1,Screen 1,Zone1,continue_button,1075,NaN,NaN,,NaN,0,1,0,NaN,NaN,NaN,NaN,NaN,trial_left,greenBox.png,greenBox.png,blueBox.png,al2_uncon.png,27,16,NaN,NaN,0.15,0.15,0,1,0,0,Stable,Stable,1.378,0.689,0.878,2.076,inexpert
80,1673379880808,10/01/2023 19:44:40,1673379880762,0,10/01/2023 19:44:40,111483,6,task-rbyw,repeat-u7ds#1->-repeat-l3h2#1,26307575,BLIND,7766470,NaN,complete,NaN,63bdb974d4e9ba2e6133b400,computer,Desktop or Laptop,Mac OS 10.15.7,Safari 15.6.1,1920x1080,1679x1017,Start of Day 2,SLS,90,B,NaN,NaN,NaN,Pass,End of Day 1,Pass,NaN,Pass,NaN,Pass,NaN,Start of Day 2,schedule_B,schedule_B,17,9,2,individual,Zone4,timelimit_screen,1002,NaN,NaN,,NaN,0,1,0,NaN,NaN,1,NaN,NaN,trial_left,greenBox.png,greenBox.png,blueBox.png,al2_uncon.png,27,16,NaN,NaN,0.15,0.15,0,1,0,0,Stable,Stable,1.378,0.689,0.878,2.076,inexpert
81,1673379881788,10/01/2023 19:44:41,1673379881767,0,10/01/2023 19:44:41,111483,6,task-rbyw,repeat-u7ds#1->-repeat-l3h2#1,26307575,BLIND,7766470,NaN,complete,NaN,63bdb974d4e9ba2e6133b400,computer,Desktop or Laptop,Mac OS 10.15.7,Safari 15.6.1,1920x1080,1679x1017,Start of Day 2,SLS,90,B,NaN,NaN,NaN,Pass,End of Day 1,Pass,NaN,Pass,NaN,Pass,NaN,Start of Day 2,schedule_B,schedule_B,17,9,3,offer,Zone2,response_button_image,997,NaN,NaN,greenBox.png,1,1,0,0,NaN,NaN,NaN,NaN,NaN,trial_left,greenBox.png,greenBox.png,blueBox.png,al2_uncon.png,27,16,NaN,NaN,0.15,0.15,0,1,0,0,Stable,Stable,1.378,0.689,0.878,2.076,inexpert
82,1673379883781,10/01/2023 19:44:43,1673379883765,0,10/01/2023 19:44:43,111483,6,task-rbyw,repeat-u7ds#1->-repeat-l3h2#1,26307575,BLIND,7766470,NaN,complete,NaN,63bdb974d4e9ba2e6133b400,computer,Desktop or Laptop,Mac OS 10.15.7,Safari 15.6.1,1920x1080,1679x1017,Start of Day 2,SLS,90,B,NaN,NaN,NaN,Pass,End of Day 1,Pass,NaN,Pass,NaN,Pass,NaN,Start of Day 2,schedule_B,schedule_B,17,9,4,feedback_l,Zone7,timelimit_screen,2002,NaN,NaN,,NaN,0,1,0,NaN,NaN,1,NaN,NaN,trial_left,greenBox.png,greenBox.png,blueBox.png,al2_uncon.png,27,16,NaN,NaN,0.15,0.15,0,1,0,0,Stable,Stable,1.378,0.689,0.878,2.076,inexpert
83,1673379884695,10/01/2023 19:44:44,1673379883915,0,10/01/2023 19:44:43,111483,6,task-rbyw,repeat-u7ds#1->-repeat-l3h2#1,26307575,BLIND,7766470,NaN,complete,NaN,63bdb974d4e9ba2e6133b400,computer,Desktop or Laptop,Mac OS 10.15.7,Safari 15.6.1,1920x1080,1679x1017,Start of Day 2,SLS,90,B,NaN,NaN,NaN,Pass,End of Day 1,Pass,NaN,Pass,NaN,Pass,NaN,Start of Day 2,schedule_B,schedule_B,17,9,6,end,Zone1,timelimit_screen,151,NaN,NaN,,NaN,0,1,0,NaN,NaN,1,NaN,NaN,trial_left,greenBox.png,greenBox.png,blueBox.png,al2_uncon.png,27,16,NaN,NaN,0.15,0.15,0,1,0,0,Stable,Stable,1.378,0.689,0.878,2.076,inexpert
84,1673379885237,10/01/2023 19:44:45,1673379885210,0,10/01/2023 19:44:45,111483,6,task-rbyw,repeat-u7ds#1->-repeat-l3h2#1,26307575,BLIND,7766470,NaN,complete,NaN,63bdb974d4e9ba2e6133b400,computer,Desktop or Laptop,Mac OS 10.15.7,Safari 15.6.1,1920x1080,1679x1017,Start of Day 2,SLS,90,B,NaN,NaN,NaN,Pass,End of Day 1,Pass,NaN,Pass,NaN,Pass,NaN,Start of Day 2,schedule_B,schedule_B,18,8,1,Screen 1,Zone1,continue_button,1280,NaN,NaN,,NaN,0,1,0,NaN,NaN,NaN,NaN,NaN,trial_right,greenBox.png,blueBox.png,greenBox.png,al2_uncon.png,28,17,NaN,NaN,0.15,0.15,0,1,0,1,Stable,Stable,2.714,0.739,1.975,1.134,inexpert
85,1673379886238,10/01/2023 19:44:46,1673379886201,0,10/01/2023 19:44:46,111483,6,task-rbyw,repeat-u7ds#1->-repeat-l3h2#1,26307575,BLIND,7766470,NaN,complete,NaN,63bdb974d4e9ba2e6133b400,computer,Desktop or Laptop,Mac OS 10.15.7,Safari 15.6.1,1920x1080,1679x1017,Start of Day 2,SLS,90,B,NaN,NaN,NaN,Pass,End of Day 1,Pass,NaN,Pass,NaN,Pass,NaN,Start of Day 2,schedule_B,schedule_B,18,8,2,individual,Zone4,timelimit_screen,1001,NaN,NaN,,NaN,0,1,0,NaN,NaN,1,NaN,NaN,trial_right,greenBox.png,blueBox.png,greenBox.png,al2_uncon.png,28,17,NaN,NaN,0.15,0.15,0,1,0,1,Stable,Stable,2.714,0.739,1.975,1.134,inexpert
86,1673379887205,10/01/2023 19:44:47,1673379887189,0,10/01/2023 19:44:47,111483,6,task-rbyw,repeat-u7ds#1->-repeat-l3h2#1,26307575,BLIND,7766470,NaN,complete,NaN,63bdb974d4e9ba2e6133b400,computer,Desktop or Laptop,Mac OS 10.15.7,Safari 15.6.1,1920x1080,1679x1017,Start of Day 2,SLS,90,B,NaN,NaN,NaN,Pass,End of Day 1,Pass,NaN,Pass,NaN,Pass,NaN,Start of Day 2,schedule_B,schedule_B,18,8,3,offer,Zone3,response_button_image,980,NaN,NaN,greenBox.png,1,1,0,0,NaN,NaN,NaN,NaN,NaN,trial_right,greenBox.png,blueBox.png,greenBox.png,al2_uncon.png,28,17,NaN,NaN,0.15,0.15,0,1,0,1,Stable,Stable,2.714,0.739,1.975,1.134,inexpert
87,1673379889204,10/01/2023 19:44:49,1673379889187,0,10/01/2023 19:44:49,111483,6,task-rbyw,repeat-u7ds#1->-repeat-l3h2#1,26307575,BLIND,7766470,NaN,complete,NaN,63bdb974d4e9ba2e6133b400,computer,Desktop or Laptop,Mac OS 10.15.7,Safari 15.6.1,1920x1080,1679x1017,Start of Day 2,SLS,90,B,NaN,NaN,NaN,Pass,End of Day 1,Pass,NaN,Pass,NaN,Pass,NaN,Start of Day 2,schedule_B,schedule_B,18,8,5,feedback_r,Zone7,timelimit_screen,2002,NaN,NaN,,NaN,0,1,0,NaN,NaN,1,NaN,NaN,trial_right,greenBox.png,blueBox.png,greenBox.png,al2_uncon.png,28,17,NaN,NaN,0.15,0.15,0,1,0,1,Stable,Stable,2.714,0.739,1.975,1.134,inexpert
88,1673379889365,10/01/2023 19:44:49,1673379889337,0,10/01/2023 19:44:49,111483,6,task-rbyw,repeat-u7ds#1->-repeat-l3h2#1,26307575,BLIND,7766470,NaN,complete,NaN,63bdb974d4e9ba2e6133b400,computer,Desktop or Laptop,Mac OS 10.15.7,Safari 15.6.1,1920x1080,1679x1017,Start of Day 2,SLS,90,B,NaN,NaN,NaN,Pass,End of Day 1,Pass,NaN,Pass,NaN,Pass,NaN,Start of Day 2,schedule_B,schedule_B,18,8,6,end,Zone1,timelimit_screen,149,NaN,NaN,,NaN,0,1,0,NaN,NaN,1,NaN,NaN,trial_right,greenBox.png,blueBox.png,greenBox.png,al2_uncon.png,28,17,NaN,NaN,0.15,0.15,0,1,0,1,Stable,Stable,2.714,0.739,1.975,1.134,inexpert
89,1673379890348,10/01/2023 19:44:50,1673379890329,0,10/01/2023 19:44:50,111483,6,task-rbyw,repeat-u7ds#1->-repeat-l3h2#1,26307575,BLIND,7766470,NaN,complete,NaN,63bdb974d4e9ba2e6133b400,computer,Desktop or Laptop,Mac OS 10.15.7,Safari 15.6.1,1920x1080,1679x1017,Start of Day 2,SLS,90,B,NaN,NaN,NaN,Pass,End of Day 1,Pass,NaN,Pass,NaN,Pass,NaN,Start of Day 2,schedule_B,schedule_B,19,9,1,Screen 1,Zone1,continue_button,978,NaN,NaN,,NaN,0,1,0,NaN,NaN,NaN,NaN,NaN,trial_right,greenBox.png,greenBox.png,blueBox.png,al2_uncon.png,29,18,NaN,NaN,0.15,0.15,0,0,1,0,Stable,Stable,3.874,0.676,1.496,1.639,inexpert
90,1673379891804,10/01/2023 19:44:51,1673379891323,0,10/01/2023 19:44:51,111483,6,task-rbyw,repeat-u7ds#1->-repeat-l3h2#1,26307575,BLIND,7766470,NaN,complete,NaN,63bdb974d4e9ba2e6133b400,computer,Desktop or Laptop,Mac OS 10.15.7,Safari 15.6.1,1920x1080,1679x1017,Start of Day 2,SLS,90,B,NaN,NaN,NaN,Pass,End of Day 1,Pass,NaN,Pass,NaN,Pass,NaN,Start of Day 2,schedule_B,schedule_B,19,9,2,individual,Zone4,timelimit_screen,1000,NaN,NaN,,NaN,0,1,0,NaN,NaN,1,NaN,NaN,trial_right,greenBox.png,greenBox.png,blueBox.png,al2_uncon.png,29,18,NaN,NaN,0.15,0.15,0,0,1,0,Stable,Stable,3.874,0.676,1.496,1.639,inexpert
91,1673379893031,10/01/2023 19:44:53,1673379893017,0,10/01/2023 19:44:53,111483,6,task-rbyw,repeat-u7ds#1->-repeat-l3h2#1,26307575,BLIND,7766470,NaN,complete,NaN,63bdb974d4e9ba2e6133b400,computer,Desktop or Laptop,Mac OS 10.15.7,Safari 15.6.1,1920x1080,1679x1017,Start of Day 2,SLS,90,B,NaN,NaN,NaN,Pass,End of Day 1,Pass,NaN,Pass,NaN,Pass,NaN,Start of Day 2,schedule_B,schedule_B,19,9,3,offer,Zone3,response_button_image,1686,NaN,NaN,blueBox.png,1,0,1,0,NaN,NaN,NaN,NaN,NaN,trial_right,greenBox.png,greenBox.png,blueBox.png,al2_uncon.png,29,18,NaN,NaN,0.15,0.15,0,0,1,0,Stable,Stable,3.874,0.676,1.496,1.639,inexpert
92,1673379895028,10/01/2023 19:44:55,1673379895010,0,10/01/2023 19:44:55,111483,6,task-rbyw,repeat-u7ds#1->-repeat-l3h2#1,26307575,BLIND,7766470,NaN,complete,NaN,63bdb974d4e9ba2e6133b400,computer,Desktop or Laptop,Mac OS 10.15.7,Safari 15.6.1,1920x1080,1679x1017,Start of Day 2,SLS,90,B,NaN,NaN,NaN,Pass,End of Day 1,Pass,NaN,Pass,NaN,Pass,NaN,Start of Day 2,schedule_B,schedule_B,19,9,5,feedback_r,Zone7,timelimit_screen,2002,NaN,NaN,,NaN,0,1,0,NaN,NaN,1,NaN,NaN,trial_right,greenBox.png,greenBox.png,blueBox.png,al2_uncon.png,29,18,NaN,NaN,0.15,0.15,0,0,1,0,Stable,Stable,3.874,0.676,1.496,1.639,inexpert
93,1673379895186,10/01/2023 19:44:55,1673379895160,0,10/01/2023 19:44:55,111483,6,task-rbyw,repeat-u7ds#1->-repeat-l3h2#1,26307575,BLIND,7766470,NaN,complete,NaN,63bdb974d4e9ba2e6133b400,computer,Desktop or Laptop,Mac OS 10.15.7,Safari 15.6.1,1920x1080,1679x1017,Start of Day 2,SLS,90,B,NaN,NaN,NaN,Pass,End of Day 1,Pass,NaN,Pass,NaN,Pass,NaN,Start of Day 2,schedule_B,schedule_B,19,9,6,end,Zone1,timelimit_screen,150,NaN,NaN,,NaN,0,1,0,NaN,NaN,1,NaN,NaN,trial_right,greenBox.png,greenBox.png,blueBox.png,al2_uncon.png,29,18,NaN,NaN,0.15,0.15,0,0,1,0,Stable,Stable,3.874,0.676,1.496,1.639,inexpert
94,1673379896937,10/01/2023 19:44:56,1673379896910,0,10/01/2023 19:44:56,111483,6,task-rbyw,repeat-u7ds#1->-repeat-l3h2#1,26307575,BLIND,7766470,NaN,complete,NaN,63bdb974d4e9ba2e6133b400,computer,Desktop or Laptop,Mac OS 10.15.7,Safari 15.6.1,1920x1080,1679x1017,Start of Day 2,SLS,90,B,NaN,NaN,NaN,Pass,End of Day 1,Pass,NaN,Pass,NaN,Pass,NaN,Start of Day 2,schedule_B,schedule_B,20,10,1,Screen 1,Zone1,continue_button,1731.99999999999,NaN,NaN,,NaN,0,1,0,NaN,NaN,NaN,NaN,NaN,trial_left,greenBox.png,greenBox.png,blueBox.png,al2_uncon.png,30,19,NaN,NaN,0.15,0.15,0,1,0,0,Stable,Stable,1.252,1.193,0.853,2.681,inexpert
95,1673379897915,10/01/2023 19:44:57,1673379897897,0,10/01/2023 19:44:57,111483,6,task-rbyw,repeat-u7ds#1->-repeat-l3h2#1,26307575,BLIND,7766470,NaN,complete,NaN,63bdb974d4e9ba2e6133b400,computer,Desktop or Laptop,Mac OS 10.15.7,Safari 15.6.1,1920x1080,1679x1017,Start of Day 2,SLS,90,B,NaN,NaN,NaN,Pass,End of Day 1,Pass,NaN,Pass,NaN,Pass,NaN,Start of Day 2,schedule_B,schedule_B,20,10,2,individual,Zone4,timelimit_screen,1001,NaN,NaN,,NaN,0,1,0,NaN,NaN,1,NaN,NaN,trial_left,greenBox.png,greenBox.png,blueBox.png,al2_uncon.png,30,19,NaN,NaN,0.15,0.15,0,1,0,0,Stable,Stable,1.252,1.193,0.853,2.681,inexpert
96,1673379899080,10/01/2023 19:44:59,1673379899047,0,10/01/2023 19:44:59,111483,6,task-rbyw,repeat-u7ds#1->-repeat-l3h2#1,26307575,BLIND,7766470,NaN,complete,NaN,63bdb974d4e9ba2e6133b400,computer,Desktop or Laptop,Mac OS 10.15.7,Safari 15.6.1,1920x1080,1679x1017,Start of Day 2,SLS,90,B,NaN,NaN,NaN,Pass,End of Day 1,Pass,NaN,Pass,NaN,Pass,NaN,Start of Day 2,schedule_B,schedule_B,20,10,3,offer,bluebox,response_button_image,1142.00000000001,NaN,NaN,blueBox.png,1,0,1,0,NaN,NaN,NaN,NaN,NaN,trial_left,greenBox.png,greenBox.png,blueBox.png,al2_uncon.png,30,19,NaN,NaN,0.15,0.15,0,1,0,0,Stable,Stable,1.252,1.193,0.853,2.681,inexpert
97,1673379901060,10/01/2023 19:45:01,1673379901033,0,10/01/2023 19:45:01,111483,6,task-rbyw,repeat-u7ds#1->-repeat-l3h2#1,26307575,BLIND,7766470,NaN,complete,NaN,63bdb974d4e9ba2e6133b400,computer,Desktop or Laptop,Mac OS 10.15.7,Safari 15.6.1,1920x1080,1679x1017,Start of Day 2,SLS,90,B,NaN,NaN,NaN,Pass,End of Day 1,Pass,NaN,Pass,NaN,Pass,NaN,Start of Day 2,schedule_B,schedule_B,20,10,5,feedback_r,Zone7,timelimit_screen,2002,NaN,NaN,,NaN,0,1,0,NaN,NaN,1,NaN,NaN,trial_left,greenBox.png,greenBox.png,blueBox.png,al2_uncon.png,30,19,NaN,NaN,0.15,0.15,0,1,0,0,Stable,Stable,1.252,1.193,0.853,2.681,inexpert
98,1673379901191,10/01/2023 19:45:01,1673379901183,0,10/01/2023 19:45:01,111483,6,task-rbyw,repeat-u7ds#1->-repeat-l3h2#1,26307575,BLIND,7766470,NaN,complete,NaN,63bdb974d4e9ba2e6133b400,computer,Desktop or Laptop,Mac OS 10.15.7,Safari 15.6.1,1920x1080,1679x1017,Start of Day 2,SLS,90,B,NaN,NaN,NaN,Pass,End of Day 1,Pass,NaN,Pass,NaN,Pass,NaN,Start of Day 2,schedule_B,schedule_B,20,10,6,end,Zone1,timelimit_screen,151,NaN,NaN,,NaN,0,1,0,NaN,NaN,1,NaN,NaN,trial_left,greenBox.png,greenBox.png,blueBox.png,al2_uncon.png,30,19,NaN,NaN,0.15,0.15,0,1,0,0,Stable,Stable,1.252,1.193,0.853,2.681,inexpert
99,1673379902041,10/01/2023 19:45:02,1673379902017,0,10/01/2023 19:45:02,111483,6,task-rbyw,repeat-u7ds#1->-repeat-l3h2#1,26307575,BLIND,7766470,NaN,complete,NaN,63bdb974d4e9ba2e6133b400,computer,Desktop or Laptop,Mac OS 10.15.7,Safari 15.6.1,1920x1080,1679x1017,Start of Day 2,SLS,90,B,NaN,NaN,NaN,Pass,End of Day 1,Pass,NaN,Pass,NaN,Pass,NaN,Start of Day 2,schedule_B,schedule_B,21,10,1,Screen 1,Zone1,continue_button,817,NaN,NaN,,NaN,0,1,0,NaN,NaN,NaN,NaN,NaN,trial_right,greenBox.png,greenBox.png,blueBox.png,al2_uncon.png,41,20,NaN,NaN,0.15,0.15,0,0,1,0,Stable,Stable,3.521,1.723,1.37,1.655,inexpert
100,1673379903026,10/01/2023 19:45:03,1673379903002,0,10/01/2023 19:45:03,111483,6,task-rbyw,repeat-u7ds#1->-repeat-l3h2#1,26307575,BLIND,7766470,NaN,complete,NaN,63bdb974d4e9ba2e6133b400,computer,Desktop or Laptop,Mac OS 10.15.7,Safari 15.6.1,1920x1080,1679x1017,Start of Day 2,SLS,90,B,NaN,NaN,NaN,Pass,End of Day 1,Pass,NaN,Pass,NaN,Pass,NaN,Start of Day 2,schedule_B,schedule_B,21,10,2,individual,Zone4,timelimit_screen,1001,NaN,NaN,,NaN,0,1,0,NaN,NaN,1,NaN,NaN,trial_right,greenBox.png,greenBox.png,blueBox.png,al2_uncon.png,41,20,NaN,NaN,0.15,0.15,0,0,1,0,Stable,Stable,3.521,1.723,1.37,1.655,inexpert
101,1673379903947,10/01/2023 19:45:03,1673379903918,0,10/01/2023 19:45:03,111483,6,task-rbyw,repeat-u7ds#1->-repeat-l3h2#1,26307575,BLIND,7766470,NaN,complete,NaN,63bdb974d4e9ba2e6133b400,computer,Desktop or Laptop,Mac OS 10.15.7,Safari 15.6.1,1920x1080,1679x1017,Start of Day 2,SLS,90,B,NaN,NaN,NaN,Pass,End of Day 1,Pass,NaN,Pass,NaN,Pass,NaN,Start of Day 2,schedule_B,schedule_B,21,10,3,offer,Zone2,response_button_image,907,NaN,NaN,greenBox.png,1,1,0,0,NaN,NaN,NaN,NaN,NaN,trial_right,greenBox.png,greenBox.png,blueBox.png,al2_uncon.png,41,20,NaN,NaN,0.15,0.15,0,0,1,0,Stable,Stable,3.521,1.723,1.37,1.655,inexpert
102,1673379905940,10/01/2023 19:45:05,1673379905905,0,10/01/2023 19:45:05,111483,6,task-rbyw,repeat-u7ds#1->-repeat-l3h2#1,26307575,BLIND,7766470,NaN,complete,NaN,63bdb974d4e9ba2e6133b400,computer,Desktop or Laptop,Mac OS 10.15.7,Safari 15.6.1,1920x1080,1679x1017,Start of Day 2,SLS,90,B,NaN,NaN,NaN,Pass,End of Day 1,Pass,NaN,Pass,NaN,Pass,NaN,Start of Day 2,schedule_B,schedule_B,21,10,4,feedback_l,Zone7,timelimit_screen,2002,NaN,NaN,,NaN,0,1,0,NaN,NaN,1,NaN,NaN,trial_right,greenBox.png,greenBox.png,blueBox.png,al2_uncon.png,41,20,NaN,NaN,0.15,0.15,0,0,1,0,Stable,Stable,3.521,1.723,1.37,1.655,inexpert
103,1673379906078,10/01/2023 19:45:06,1673379906054,0,10/01/2023 19:45:06,111483,6,task-rbyw,repeat-u7ds#1->-repeat-l3h2#1,26307575,BLIND,7766470,NaN,complete,NaN,63bdb974d4e9ba2e6133b400,computer,Desktop or Laptop,Mac OS 10.15.7,Safari 15.6.1,1920x1080,1679x1017,Start of Day 2,SLS,90,B,NaN,NaN,NaN,Pass,End of Day 1,Pass,NaN,Pass,NaN,Pass,NaN,Start of Day 2,schedule_B,schedule_B,21,10,6,end,Zone1,timelimit_screen,150,NaN,NaN,,NaN,0,1,0,NaN,NaN,1,NaN,NaN,trial_right,greenBox.png,greenBox.png,blueBox.png,al2_uncon.png,41,20,NaN,NaN,0.15,0.15,0,0,1,0,Stable,Stable,3.521,1.723,1.37,1.655,inexpert
104,1673379907322,10/01/2023 19:45:07,1673379907294,0,10/01/2023 19:45:07,111483,6,task-rbyw,repeat-u7ds#1->-repeat-l3h2#1,26307575,BLIND,7766470,NaN,complete,NaN,63bdb974d4e9ba2e6133b400,computer,Desktop or Laptop,Mac OS 10.15.7,Safari 15.6.1,1920x1080,1679x1017,Start of Day 2,SLS,90,B,NaN,NaN,NaN,Pass,End of Day 1,Pass,NaN,Pass,NaN,Pass,NaN,Start of Day 2,schedule_B,schedule_B,22,11,1,Screen 1,Zone1,continue_button,1225.00000000001,NaN,NaN,,NaN,0,1,0,NaN,NaN,NaN,NaN,NaN,trial_left,blueBox.png,blueBox.png,greenBox.png,al2_uncon.png,42,21,NaN,NaN,0.85,0.15,1,1,1,1,Stable,Stable,2.336,0.651,1.685,2.882,inexpert
105,1673379908319,10/01/2023 19:45:08,1673379908291,0,10/01/2023 19:45:08,111483,6,task-rbyw,repeat-u7ds#1->-repeat-l3h2#1,26307575,BLIND,7766470,NaN,complete,NaN,63bdb974d4e9ba2e6133b400,computer,Desktop or Laptop,Mac OS 10.15.7,Safari 15.6.1,1920x1080,1679x1017,Start of Day 2,SLS,90,B,NaN,NaN,NaN,Pass,End of Day 1,Pass,NaN,Pass,NaN,Pass,NaN,Start of Day 2,schedule_B,schedule_B,22,11,2,individual,Zone4,timelimit_screen,1001,NaN,NaN,,NaN,0,1,0,NaN,NaN,1,NaN,NaN,trial_left,blueBox.png,blueBox.png,greenBox.png,al2_uncon.png,42,21,NaN,NaN,0.85,0.15,1,1,1,1,Stable,Stable,2.336,0.651,1.685,2.882,inexpert
106,1673379909378,10/01/2023 19:45:09,1673379909341,0,10/01/2023 19:45:09,111483,6,task-rbyw,repeat-u7ds#1->-repeat-l3h2#1,26307575,BLIND,7766470,NaN,complete,NaN,63bdb974d4e9ba2e6133b400,computer,Desktop or Laptop,Mac OS 10.15.7,Safari 15.6.1,1920x1080,1679x1017,Start of Day 2,SLS,90,B,NaN,NaN,NaN,Pass,End of Day 1,Pass,NaN,Pass,NaN,Pass,NaN,Start of Day 2,schedule_B,schedule_B,22,11,3,offer,Zone2,response_button_image,1040.99999999999,NaN,NaN,blueBox.png,1,1,0,0,NaN,NaN,NaN,NaN,NaN,trial_left,blueBox.png,blueBox.png,greenBox.png,al2_uncon.png,42,21,NaN,NaN,0.85,0.15,1,1,1,1,Stable,Stable,2.336,0.651,1.685,2.882,inexpert
107,1673379911357,10/01/2023 19:45:11,1673379911327,0,10/01/2023 19:45:11,111483,6,task-rbyw,repeat-u7ds#1->-repeat-l3h2#1,26307575,BLIND,7766470,NaN,complete,NaN,63bdb974d4e9ba2e6133b400,computer,Desktop or Laptop,Mac OS 10.15.7,Safari 15.6.1,1920x1080,1679x1017,Start of Day 2,SLS,90,B,NaN,NaN,NaN,Pass,End of Day 1,Pass,NaN,Pass,NaN,Pass,NaN,Start of Day 2,schedule_B,schedule_B,22,11,4,feedback_l,Zone7,timelimit_screen,2001,NaN,NaN,,NaN,0,1,0,NaN,NaN,1,NaN,NaN,trial_left,blueBox.png,blueBox.png,greenBox.png,al2_uncon.png,42,21,NaN,NaN,0.85,0.15,1,1,1,1,Stable,Stable,2.336,0.651,1.685,2.882,inexpert
108,1673379911506,10/01/2023 19:45:11,1673379911477,0,10/01/2023 19:45:11,111483,6,task-rbyw,repeat-u7ds#1->-repeat-l3h2#1,26307575,BLIND,7766470,NaN,complete,NaN,63bdb974d4e9ba2e6133b400,computer,Desktop or Laptop,Mac OS 10.15.7,Safari 15.6.1,1920x1080,1679x1017,Start of Day 2,SLS,90,B,NaN,NaN,NaN,Pass,End of Day 1,Pass,NaN,Pass,NaN,Pass,NaN,Start of Day 2,schedule_B,schedule_B,22,11,6,end,Zone1,timelimit_screen,151,NaN,NaN,,NaN,0,1,0,NaN,NaN,1,NaN,NaN,trial_left,blueBox.png,blueBox.png,greenBox.png,al2_uncon.png,42,21,NaN,NaN,0.85,0.15,1,1,1,1,Stable,Stable,2.336,0.651,1.685,2.882,inexpert
109,1673379912253,10/01/2023 19:45:12,1673379912210,0,10/01/2023 19:45:12,111483,6,task-rbyw,repeat-u7ds#1->-repeat-l3h2#1,26307575,BLIND,7766470,NaN,complete,NaN,63bdb974d4e9ba2e6133b400,computer,Desktop or Laptop,Mac OS 10.15.7,Safari 15.6.1,1920x1080,1679x1017,Start of Day 2,SLS,90,B,NaN,NaN,NaN,Pass,End of Day 1,Pass,NaN,Pass,NaN,Pass,NaN,Start of Day 2,schedule_B,schedule_B,23,11,1,Screen 1,Zone1,continue_button,718,NaN,NaN,,NaN,0,1,0,NaN,NaN,NaN,NaN,NaN,trial_right,blueBox.png,blueBox.png,greenBox.png,al2_uncon.png,43,22,NaN,NaN,0.85,0.15,1,0,0,1,Stable,Stable,3.622,1.319,1.193,1.067,inexpert
110,1673379913222,10/01/2023 19:45:13,1673379913197,0,10/01/2023 19:45:13,111483,6,task-rbyw,repeat-u7ds#1->-repeat-l3h2#1,26307575,BLIND,7766470,NaN,complete,NaN,63bdb974d4e9ba2e6133b400,computer,Desktop or Laptop,Mac OS 10.15.7,Safari 15.6.1,1920x1080,1679x1017,Start of Day 2,SLS,90,B,NaN,NaN,NaN,Pass,End of Day 1,Pass,NaN,Pass,NaN,Pass,NaN,Start of Day 2,schedule_B,schedule_B,23,11,2,individual,Zone4,timelimit_screen,1001,NaN,NaN,,NaN,0,1,0,NaN,NaN,1,NaN,NaN,trial_right,blueBox.png,blueBox.png,greenBox.png,al2_uncon.png,43,22,NaN,NaN,0.85,0.15,1,0,0,1,Stable,Stable,3.622,1.319,1.193,1.067,inexpert
111,1673379914498,10/01/2023 19:45:14,1673379914471,0,10/01/2023 19:45:14,111483,6,task-rbyw,repeat-u7ds#1->-repeat-l3h2#1,26307575,BLIND,7766470,NaN,complete,NaN,63bdb974d4e9ba2e6133b400,computer,Desktop or Laptop,Mac OS 10.15.7,Safari 15.6.1,1920x1080,1679x1017,Start of Day 2,SLS,90,B,NaN,NaN,NaN,Pass,End of Day 1,Pass,NaN,Pass,NaN,Pass,NaN,Start of Day 2,schedule_B,schedule_B,23,11,3,offer,Zone3,response_button_image,1266,NaN,NaN,greenBox.png,1,0,1,0,NaN,NaN,NaN,NaN,NaN,trial_right,blueBox.png,blueBox.png,greenBox.png,al2_uncon.png,43,22,NaN,NaN,0.85,0.15,1,0,0,1,Stable,Stable,3.622,1.319,1.193,1.067,inexpert
112,1673379916495,10/01/2023 19:45:16,1673379916466,0,10/01/2023 19:45:16,111483,6,task-rbyw,repeat-u7ds#1->-repeat-l3h2#1,26307575,BLIND,7766470,NaN,complete,NaN,63bdb974d4e9ba2e6133b400,computer,Desktop or Laptop,Mac OS 10.15.7,Safari 15.6.1,1920x1080,1679x1017,Start of Day 2,SLS,90,B,NaN,NaN,NaN,Pass,End of Day 1,Pass,NaN,Pass,NaN,Pass,NaN,Start of Day 2,schedule_B,schedule_B,23,11,5,feedback_r,Zone7,timelimit_screen,2002,NaN,NaN,,NaN,0,1,0,NaN,NaN,1,NaN,NaN,trial_right,blueBox.png,blueBox.png,greenBox.png,al2_uncon.png,43,22,NaN,NaN,0.85,0.15,1,0,0,1,Stable,Stable,3.622,1.319,1.193,1.067,inexpert
113,1673379916635,10/01/2023 19:45:16,1673379916616,0,10/01/2023 19:45:16,111483,6,task-rbyw,repeat-u7ds#1->-repeat-l3h2#1,26307575,BLIND,7766470,NaN,complete,NaN,63bdb974d4e9ba2e6133b400,computer,Desktop or Laptop,Mac OS 10.15.7,Safari 15.6.1,1920x1080,1679x1017,Start of Day 2,SLS,90,B,NaN,NaN,NaN,Pass,End of Day 1,Pass,NaN,Pass,NaN,Pass,NaN,Start of Day 2,schedule_B,schedule_B,23,11,6,end,Zone1,timelimit_screen,150,NaN,NaN,,NaN,0,1,0,NaN,NaN,1,NaN,NaN,trial_right,blueBox.png,blueBox.png,greenBox.png,al2_uncon.png,43,22,NaN,NaN,0.85,0.15,1,0,0,1,Stable,Stable,3.622,1.319,1.193,1.067,inexpert
114,1673379918402,10/01/2023 19:45:18,1673379918375,0,10/01/2023 19:45:18,111483,6,task-rbyw,repeat-u7ds#1->-repeat-l3h2#1,26307575,BLIND,7766470,NaN,complete,NaN,63bdb974d4e9ba2e6133b400,computer,Desktop or Laptop,Mac OS 10.15.7,Safari 15.6.1,1920x1080,1679x1017,Start of Day 2,SLS,90,B,NaN,NaN,NaN,Pass,End of Day 1,Pass,NaN,Pass,NaN,Pass,NaN,Start of Day 2,schedule_B,schedule_B,24,12,1,Screen 1,Zone1,continue_button,1744,NaN,NaN,,NaN,0,1,0,NaN,NaN,NaN,NaN,NaN,trial_left,blueBox.png,greenBox.png,blueBox.png,al2_uncon.png,44,23,NaN,NaN,0.85,0.15,1,0,0,0,Stable,Stable,1.731,0.853,2,1.202,inexpert
115,1673379919387,10/01/2023 19:45:19,1673379919369,0,10/01/2023 19:45:19,111483,6,task-rbyw,repeat-u7ds#1->-repeat-l3h2#1,26307575,BLIND,7766470,NaN,complete,NaN,63bdb974d4e9ba2e6133b400,computer,Desktop or Laptop,Mac OS 10.15.7,Safari 15.6.1,1920x1080,1679x1017,Start of Day 2,SLS,90,B,NaN,NaN,NaN,Pass,End of Day 1,Pass,NaN,Pass,NaN,Pass,NaN,Start of Day 2,schedule_B,schedule_B,24,12,2,individual,Zone4,timelimit_screen,1001,NaN,NaN,,NaN,0,1,0,NaN,NaN,1,NaN,NaN,trial_left,blueBox.png,greenBox.png,blueBox.png,al2_uncon.png,44,23,NaN,NaN,0.85,0.15,1,0,0,0,Stable,Stable,1.731,0.853,2,1.202,inexpert
116,1673379920456,10/01/2023 19:45:20,1673379920445,0,10/01/2023 19:45:20,111483,6,task-rbyw,repeat-u7ds#1->-repeat-l3h2#1,26307575,BLIND,7766470,NaN,complete,NaN,63bdb974d4e9ba2e6133b400,computer,Desktop or Laptop,Mac OS 10.15.7,Safari 15.6.1,1920x1080,1679x1017,Start of Day 2,SLS,90,B,NaN,NaN,NaN,Pass,End of Day 1,Pass,NaN,Pass,NaN,Pass,NaN,Start of Day 2,schedule_B,schedule_B,24,12,3,offer,Zone2,response_button_image,1067,NaN,NaN,greenBox.png,1,0,1,0,NaN,NaN,NaN,NaN,NaN,trial_left,blueBox.png,greenBox.png,blueBox.png,al2_uncon.png,44,23,NaN,NaN,0.85,0.15,1,0,0,0,Stable,Stable,1.731,0.853,2,1.202,inexpert
117,1673379922466,10/01/2023 19:45:22,1673379922439,0,10/01/2023 19:45:22,111483,6,task-rbyw,repeat-u7ds#1->-repeat-l3h2#1,26307575,BLIND,7766470,NaN,complete,NaN,63bdb974d4e9ba2e6133b400,computer,Desktop or Laptop,Mac OS 10.15.7,Safari 15.6.1,1920x1080,1679x1017,Start of Day 2,SLS,90,B,NaN,NaN,NaN,Pass,End of Day 1,Pass,NaN,Pass,NaN,Pass,NaN,Start of Day 2,schedule_B,schedule_B,24,12,4,feedback_l,Zone7,timelimit_screen,2002,NaN,NaN,,NaN,0,1,0,NaN,NaN,1,NaN,NaN,trial_left,blueBox.png,greenBox.png,blueBox.png,al2_uncon.png,44,23,NaN,NaN,0.85,0.15,1,0,0,0,Stable,Stable,1.731,0.853,2,1.202,inexpert
118,1673379922608,10/01/2023 19:45:22,1673379922589,0,10/01/2023 19:45:22,111483,6,task-rbyw,repeat-u7ds#1->-repeat-l3h2#1,26307575,BLIND,7766470,NaN,complete,NaN,63bdb974d4e9ba2e6133b400,computer,Desktop or Laptop,Mac OS 10.15.7,Safari 15.6.1,1920x1080,1679x1017,Start of Day 2,SLS,90,B,NaN,NaN,NaN,Pass,End of Day 1,Pass,NaN,Pass,NaN,Pass,NaN,Start of Day 2,schedule_B,schedule_B,24,12,6,end,Zone1,timelimit_screen,151,NaN,NaN,,NaN,0,1,0,NaN,NaN,1,NaN,NaN,trial_left,blueBox.png,greenBox.png,blueBox.png,al2_uncon.png,44,23,NaN,NaN,0.85,0.15,1,0,0,0,Stable,Stable,1.731,0.853,2,1.202,inexpert
119,1673379923507,10/01/2023 19:45:23,1673379923483,0,10/01/2023 19:45:23,111483,6,task-rbyw,repeat-u7ds#1->-repeat-l3h2#1,26307575,BLIND,7766470,NaN,complete,NaN,63bdb974d4e9ba2e6133b400,computer,Desktop or Laptop,Mac OS 10.15.7,Safari 15.6.1,1920x1080,1679x1017,Start of Day 2,SLS,90,B,NaN,NaN,NaN,Pass,End of Day 1,Pass,NaN,Pass,NaN,Pass,NaN,Start of Day 2,schedule_B,schedule_B,25,13,1,Screen 1,Zone1,continue_button,880,NaN,NaN,,NaN,0,1,0,NaN,NaN,NaN,NaN,NaN,trial_left,blueBox.png,blueBox.png,greenBox.png,al2_uncon.png,45,24,NaN,NaN,0.85,0.15,1,1,1,1,Stable,Stable,2.109,1.798,1.508,2.782,inexpert
120,1673379924484,10/01/2023 19:45:24,1673379924475,0,10/01/2023 19:45:24,111483,6,task-rbyw,repeat-u7ds#1->-repeat-l3h2#1,26307575,BLIND,7766470,NaN,complete,NaN,63bdb974d4e9ba2e6133b400,computer,Desktop or Laptop,Mac OS 10.15.7,Safari 15.6.1,1920x1080,1679x1017,Start of Day 2,SLS,90,B,NaN,NaN,NaN,Pass,End of Day 1,Pass,NaN,Pass,NaN,Pass,NaN,Start of Day 2,schedule_B,schedule_B,25,13,2,individual,Zone4,timelimit_screen,1001,NaN,NaN,,NaN,0,1,0,NaN,NaN,1,NaN,NaN,trial_left,blueBox.png,blueBox.png,greenBox.png,al2_uncon.png,45,24,NaN,NaN,0.85,0.15,1,1,1,1,Stable,Stable,2.109,1.798,1.508,2.782,inexpert
121,1673379925171,10/01/2023 19:45:25,1673379925136,0,10/01/2023 19:45:25,111483,6,task-rbyw,repeat-u7ds#1->-repeat-l3h2#1,26307575,BLIND,7766470,NaN,complete,NaN,63bdb974d4e9ba2e6133b400,computer,Desktop or Laptop,Mac OS 10.15.7,Safari 15.6.1,1920x1080,1679x1017,Start of Day 2,SLS,90,B,NaN,NaN,NaN,Pass,End of Day 1,Pass,NaN,Pass,NaN,Pass,NaN,Start of Day 2,schedule_B,schedule_B,25,13,3,offer,Zone2,response_button_image,652,NaN,NaN,blueBox.png,1,1,0,0,NaN,NaN,NaN,NaN,NaN,trial_left,blueBox.png,blueBox.png,greenBox.png,al2_uncon.png,45,24,NaN,NaN,0.85,0.15,1,1,1,1,Stable,Stable,2.109,1.798,1.508,2.782,inexpert
122,1673379927138,10/01/2023 19:45:27,1673379927127,0,10/01/2023 19:45:27,111483,6,task-rbyw,repeat-u7ds#1->-repeat-l3h2#1,26307575,BLIND,7766470,NaN,complete,NaN,63bdb974d4e9ba2e6133b400,computer,Desktop or Laptop,Mac OS 10.15.7,Safari 15.6.1,1920x1080,1679x1017,Start of Day 2,SLS,90,B,NaN,NaN,NaN,Pass,End of Day 1,Pass,NaN,Pass,NaN,Pass,NaN,Start of Day 2,schedule_B,schedule_B,25,13,4,feedback_l,Zone7,timelimit_screen,2001,NaN,NaN,,NaN,0,1,0,NaN,NaN,1,NaN,NaN,trial_left,blueBox.png,blueBox.png,greenBox.png,al2_uncon.png,45,24,NaN,NaN,0.85,0.15,1,1,1,1,Stable,Stable,2.109,1.798,1.508,2.782,inexpert
123,1673379927299,10/01/2023 19:45:27,1673379927278,0,10/01/2023 19:45:27,111483,6,task-rbyw,repeat-u7ds#1->-repeat-l3h2#1,26307575,BLIND,7766470,NaN,complete,NaN,63bdb974d4e9ba2e6133b400,computer,Desktop or Laptop,Mac OS 10.15.7,Safari 15.6.1,1920x1080,1679x1017,Start of Day 2,SLS,90,B,NaN,NaN,NaN,Pass,End of Day 1,Pass,NaN,Pass,NaN,Pass,NaN,Start of Day 2,schedule_B,schedule_B,25,13,6,end,Zone1,timelimit_screen,151,NaN,NaN,,NaN,0,1,0,NaN,NaN,1,NaN,NaN,trial_left,blueBox.png,blueBox.png,greenBox.png,al2_uncon.png,45,24,NaN,NaN,0.85,0.15,1,1,1,1,Stable,Stable,2.109,1.798,1.508,2.782,inexpert
124,1673379928644,10/01/2023 19:45:28,1673379928613,0,10/01/2023 19:45:28,111483,6,task-rbyw,repeat-u7ds#1->-repeat-l3h2#1,26307575,BLIND,7766470,NaN,complete,NaN,63bdb974d4e9ba2e6133b400,computer,Desktop or Laptop,Mac OS 10.15.7,Safari 15.6.1,1920x1080,1679x1017,Start of Day 2,SLS,90,B,NaN,NaN,NaN,Pass,End of Day 1,Pass,NaN,Pass,NaN,Pass,NaN,Start of Day 2,schedule_B,schedule_B,26,12,1,Screen 1,Zone1,continue_button,1317.00000000003,NaN,NaN,,NaN,0,1,0,NaN,NaN,NaN,NaN,NaN,trial_right,blueBox.png,greenBox.png,blueBox.png,al2_uncon.png,46,25,NaN,NaN,0.85,0.15,1,1,1,0,Stable,Stable,2.916,1.294,1.962,2.361,inexpert
125,1673379929622,10/01/2023 19:45:29,1673379929597,0,10/01/2023 19:45:29,111483,6,task-rbyw,repeat-u7ds#1->-repeat-l3h2#1,26307575,BLIND,7766470,NaN,complete,NaN,63bdb974d4e9ba2e6133b400,computer,Desktop or Laptop,Mac OS 10.15.7,Safari 15.6.1,1920x1080,1679x1017,Start of Day 2,SLS,90,B,NaN,NaN,NaN,Pass,End of Day 1,Pass,NaN,Pass,NaN,Pass,NaN,Start of Day 2,schedule_B,schedule_B,26,12,2,individual,Zone4,timelimit_screen,1001,NaN,NaN,,NaN,0,1,0,NaN,NaN,1,NaN,NaN,trial_right,blueBox.png,greenBox.png,blueBox.png,al2_uncon.png,46,25,NaN,NaN,0.85,0.15,1,1,1,0,Stable,Stable,2.916,1.294,1.962,2.361,inexpert
126,1673379930209,10/01/2023 19:45:30,1673379930199,0,10/01/2023 19:45:30,111483,6,task-rbyw,repeat-u7ds#1->-repeat-l3h2#1,26307575,BLIND,7766470,NaN,complete,NaN,63bdb974d4e9ba2e6133b400,computer,Desktop or Laptop,Mac OS 10.15.7,Safari 15.6.1,1920x1080,1679x1017,Start of Day 2,SLS,90,B,NaN,NaN,NaN,Pass,End of Day 1,Pass,NaN,Pass,NaN,Pass,NaN,Start of Day 2,schedule_B,schedule_B,26,12,3,offer,Zone3,response_button_image,593,NaN,NaN,blueBox.png,1,1,0,0,NaN,NaN,NaN,NaN,NaN,trial_right,blueBox.png,greenBox.png,blueBox.png,al2_uncon.png,46,25,NaN,NaN,0.85,0.15,1,1,1,0,Stable,Stable,2.916,1.294,1.962,2.361,inexpert
127,1673379932216,10/01/2023 19:45:32,1673379932200,0,10/01/2023 19:45:32,111483,6,task-rbyw,repeat-u7ds#1->-repeat-l3h2#1,26307575,BLIND,7766470,NaN,complete,NaN,63bdb974d4e9ba2e6133b400,computer,Desktop or Laptop,Mac OS 10.15.7,Safari 15.6.1,1920x1080,1679x1017,Start of Day 2,SLS,90,B,NaN,NaN,NaN,Pass,End of Day 1,Pass,NaN,Pass,NaN,Pass,NaN,Start of Day 2,schedule_B,schedule_B,26,12,5,feedback_r,Zone7,timelimit_screen,2003,NaN,NaN,,NaN,0,1,0,NaN,NaN,1,NaN,NaN,trial_right,blueBox.png,greenBox.png,blueBox.png,al2_uncon.png,46,25,NaN,NaN,0.85,0.15,1,1,1,0,Stable,Stable,2.916,1.294,1.962,2.361,inexpert
128,1673379932362,10/01/2023 19:45:32,1673379932350,0,10/01/2023 19:45:32,111483,6,task-rbyw,repeat-u7ds#1->-repeat-l3h2#1,26307575,BLIND,7766470,NaN,complete,NaN,63bdb974d4e9ba2e6133b400,computer,Desktop or Laptop,Mac OS 10.15.7,Safari 15.6.1,1920x1080,1679x1017,Start of Day 2,SLS,90,B,NaN,NaN,NaN,Pass,End of Day 1,Pass,NaN,Pass,NaN,Pass,NaN,Start of Day 2,schedule_B,schedule_B,26,12,6,end,Zone1,timelimit_screen,150,NaN,NaN,,NaN,0,1,0,NaN,NaN,1,NaN,NaN,trial_right,blueBox.png,greenBox.png,blueBox.png,al2_uncon.png,46,25,NaN,NaN,0.85,0.15,1,1,1,0,Stable,Stable,2.916,1.294,1.962,2.361,inexpert
129,1673379933352,10/01/2023 19:45:33,1673379933315,0,10/01/2023 19:45:33,111483,6,task-rbyw,repeat-u7ds#1->-repeat-l3h2#1,26307575,BLIND,7766470,NaN,complete,NaN,63bdb974d4e9ba2e6133b400,computer,Desktop or Laptop,Mac OS 10.15.7,Safari 15.6.1,1920x1080,1679x1017,Start of Day 2,SLS,90,B,NaN,NaN,NaN,Pass,End of Day 1,Pass,NaN,Pass,NaN,Pass,NaN,Start of Day 2,schedule_B,schedule_B,27,13,1,Screen 1,Zone1,continue_button,950,NaN,NaN,,NaN,0,1,0,NaN,NaN,NaN,NaN,NaN,trial_right,blueBox.png,blueBox.png,greenBox.png,al2_uncon.png,47,26,NaN,NaN,0.85,0.15,1,0,0,1,Stable,Stable,2.487,1.697,1.13,1.286,inexpert
130,1673379934327,10/01/2023 19:45:34,1673379934302,0,10/01/2023 19:45:34,111483,6,task-rbyw,repeat-u7ds#1->-repeat-l3h2#1,26307575,BLIND,7766470,NaN,complete,NaN,63bdb974d4e9ba2e6133b400,computer,Desktop or Laptop,Mac OS 10.15.7,Safari 15.6.1,1920x1080,1679x1017,Start of Day 2,SLS,90,B,NaN,NaN,NaN,Pass,End of Day 1,Pass,NaN,Pass,NaN,Pass,NaN,Start of Day 2,schedule_B,schedule_B,27,13,2,individual,Zone4,timelimit_screen,1002,NaN,NaN,,NaN,0,1,0,NaN,NaN,1,NaN,NaN,trial_right,blueBox.png,blueBox.png,greenBox.png,al2_uncon.png,47,26,NaN,NaN,0.85,0.15,1,0,0,1,Stable,Stable,2.487,1.697,1.13,1.286,inexpert
131,1673379935191,10/01/2023 19:45:35,1673379935171,0,10/01/2023 19:45:35,111483,6,task-rbyw,repeat-u7ds#1->-repeat-l3h2#1,26307575,BLIND,7766470,NaN,complete,NaN,63bdb974d4e9ba2e6133b400,computer,Desktop or Laptop,Mac OS 10.15.7,Safari 15.6.1,1920x1080,1679x1017,Start of Day 2,SLS,90,B,NaN,NaN,NaN,Pass,End of Day 1,Pass,NaN,Pass,NaN,Pass,NaN,Start of Day 2,schedule_B,schedule_B,27,13,3,offer,Zone2,response_button_image,861,NaN,NaN,blueBox.png,1,1,0,0,NaN,NaN,NaN,NaN,NaN,trial_right,blueBox.png,blueBox.png,greenBox.png,al2_uncon.png,47,26,NaN,NaN,0.85,0.15,1,0,0,1,Stable,Stable,2.487,1.697,1.13,1.286,inexpert
132,1673379937188,10/01/2023 19:45:37,1673379937172,0,10/01/2023 19:45:37,111483,6,task-rbyw,repeat-u7ds#1->-repeat-l3h2#1,26307575,BLIND,7766470,NaN,complete,NaN,63bdb974d4e9ba2e6133b400,computer,Desktop or Laptop,Mac OS 10.15.7,Safari 15.6.1,1920x1080,1679x1017,Start of Day 2,SLS,90,B,NaN,NaN,NaN,Pass,End of Day 1,Pass,NaN,Pass,NaN,Pass,NaN,Start of Day 2,schedule_B,schedule_B,27,13,4,feedback_l,Zone7,timelimit_screen,2002,NaN,NaN,,NaN,0,1,0,NaN,NaN,1,NaN,NaN,trial_right,blueBox.png,blueBox.png,greenBox.png,al2_uncon.png,47,26,NaN,NaN,0.85,0.15,1,0,0,1,Stable,Stable,2.487,1.697,1.13,1.286,inexpert
133,1673379937346,10/01/2023 19:45:37,1673379937321,0,10/01/2023 19:45:37,111483,6,task-rbyw,repeat-u7ds#1->-repeat-l3h2#1,26307575,BLIND,7766470,NaN,complete,NaN,63bdb974d4e9ba2e6133b400,computer,Desktop or Laptop,Mac OS 10.15.7,Safari 15.6.1,1920x1080,1679x1017,Start of Day 2,SLS,90,B,NaN,NaN,NaN,Pass,End of Day 1,Pass,NaN,Pass,NaN,Pass,NaN,Start of Day 2,schedule_B,schedule_B,27,13,6,end,Zone1,timelimit_screen,150,NaN,NaN,,NaN,0,1,0,NaN,NaN,1,NaN,NaN,trial_right,blueBox.png,blueBox.png,greenBox.png,al2_uncon.png,47,26,NaN,NaN,0.85,0.15,1,0,0,1,Stable,Stable,2.487,1.697,1.13,1.286,inexpert
134,1673379938553,10/01/2023 19:45:38,1673379938524,0,10/01/2023 19:45:38,111483,6,task-rbyw,repeat-u7ds#1->-repeat-l3h2#1,26307575,BLIND,7766470,NaN,complete,NaN,63bdb974d4e9ba2e6133b400,computer,Desktop or Laptop,Mac OS 10.15.7,Safari 15.6.1,1920x1080,1679x1017,Start of Day 2,SLS,90,B,NaN,NaN,NaN,Pass,End of Day 1,Pass,NaN,Pass,NaN,Pass,NaN,Start of Day 2,schedule_B,schedule_B,28,14,1,Screen 1,Zone1,continue_button,1190,NaN,NaN,,NaN,0,1,0,NaN,NaN,NaN,NaN,NaN,trial_left,blueBox.png,greenBox.png,blueBox.png,al2_uncon.png,48,27,NaN,NaN,0.85,0.15,1,0,0,0,Stable,Stable,3.824,1.634,0.992,2.244,inexpert
135,1673379939539,10/01/2023 19:45:39,1673379939525,0,10/01/2023 19:45:39,111483,6,task-rbyw,repeat-u7ds#1->-repeat-l3h2#1,26307575,BLIND,7766470,NaN,complete,NaN,63bdb974d4e9ba2e6133b400,computer,Desktop or Laptop,Mac OS 10.15.7,Safari 15.6.1,1920x1080,1679x1017,Start of Day 2,SLS,90,B,NaN,NaN,NaN,Pass,End of Day 1,Pass,NaN,Pass,NaN,Pass,NaN,Start of Day 2,schedule_B,schedule_B,28,14,2,individual,Zone4,timelimit_screen,1002,NaN,NaN,,NaN,0,1,0,NaN,NaN,1,NaN,NaN,trial_left,blueBox.png,greenBox.png,blueBox.png,al2_uncon.png,48,27,NaN,NaN,0.85,0.15,1,0,0,0,Stable,Stable,3.824,1.634,0.992,2.244,inexpert
136,1673379940278,10/01/2023 19:45:40,1673379940256,0,10/01/2023 19:45:40,111483,6,task-rbyw,repeat-u7ds#1->-repeat-l3h2#1,26307575,BLIND,7766470,NaN,complete,NaN,63bdb974d4e9ba2e6133b400,computer,Desktop or Laptop,Mac OS 10.15.7,Safari 15.6.1,1920x1080,1679x1017,Start of Day 2,SLS,90,B,NaN,NaN,NaN,Pass,End of Day 1,Pass,NaN,Pass,NaN,Pass,NaN,Start of Day 2,schedule_B,schedule_B,28,14,3,offer,bluebox,response_button_image,722,NaN,NaN,blueBox.png,1,1,0,0,NaN,NaN,NaN,NaN,NaN,trial_left,blueBox.png,greenBox.png,blueBox.png,al2_uncon.png,48,27,NaN,NaN,0.85,0.15,1,0,0,0,Stable,Stable,3.824,1.634,0.992,2.244,inexpert
137,1673379942273,10/01/2023 19:45:42,1673379942244,0,10/01/2023 19:45:42,111483,6,task-rbyw,repeat-u7ds#1->-repeat-l3h2#1,26307575,BLIND,7766470,NaN,complete,NaN,63bdb974d4e9ba2e6133b400,computer,Desktop or Laptop,Mac OS 10.15.7,Safari 15.6.1,1920x1080,1679x1017,Start of Day 2,SLS,90,B,NaN,NaN,NaN,Pass,End of Day 1,Pass,NaN,Pass,NaN,Pass,NaN,Start of Day 2,schedule_B,schedule_B,28,14,5,feedback_r,Zone7,timelimit_screen,2003,NaN,NaN,,NaN,0,1,0,NaN,NaN,1,NaN,NaN,trial_left,blueBox.png,greenBox.png,blueBox.png,al2_uncon.png,48,27,NaN,NaN,0.85,0.15,1,0,0,0,Stable,Stable,3.824,1.634,0.992,2.244,inexpert
138,1673379942406,10/01/2023 19:45:42,1673379942394,0,10/01/2023 19:45:42,111483,6,task-rbyw,repeat-u7ds#1->-repeat-l3h2#1,26307575,BLIND,7766470,NaN,complete,NaN,63bdb974d4e9ba2e6133b400,computer,Desktop or Laptop,Mac OS 10.15.7,Safari 15.6.1,1920x1080,1679x1017,Start of Day 2,SLS,90,B,NaN,NaN,NaN,Pass,End of Day 1,Pass,NaN,Pass,NaN,Pass,NaN,Start of Day 2,schedule_B,schedule_B,28,14,6,end,Zone1,timelimit_screen,150,NaN,NaN,,NaN,0,1,0,NaN,NaN,1,NaN,NaN,trial_left,blueBox.png,greenBox.png,blueBox.png,al2_uncon.png,48,27,NaN,NaN,0.85,0.15,1,0,0,0,Stable,Stable,3.824,1.634,0.992,2.244,inexpert
139,1673379943637,10/01/2023 19:45:43,1673379943609,0,10/01/2023 19:45:43,111483,6,task-rbyw,repeat-u7ds#1->-repeat-l3h2#1,26307575,BLIND,7766470,NaN,complete,NaN,63bdb974d4e9ba2e6133b400,computer,Desktop or Laptop,Mac OS 10.15.7,Safari 15.6.1,1920x1080,1679x1017,Start of Day 2,SLS,90,B,NaN,NaN,NaN,Pass,End of Day 1,Pass,NaN,Pass,NaN,Pass,NaN,Start of Day 2,schedule_B,schedule_B,29,14,1,Screen 1,Zone1,continue_button,1201,NaN,NaN,,NaN,0,1,0,NaN,NaN,NaN,NaN,NaN,trial_right,blueBox.png,blueBox.png,greenBox.png,al2_uncon.png,49,28,NaN,NaN,0.85,0.15,1,0,0,1,Stable,Stable,2.84,1.937,1.723,2.815,inexpert
140,1673379944621,10/01/2023 19:45:44,1673379944596,0,10/01/2023 19:45:44,111483,6,task-rbyw,repeat-u7ds#1->-repeat-l3h2#1,26307575,BLIND,7766470,NaN,complete,NaN,63bdb974d4e9ba2e6133b400,computer,Desktop or Laptop,Mac OS 10.15.7,Safari 15.6.1,1920x1080,1679x1017,Start of Day 2,SLS,90,B,NaN,NaN,NaN,Pass,End of Day 1,Pass,NaN,Pass,NaN,Pass,NaN,Start of Day 2,schedule_B,schedule_B,29,14,2,individual,Zone4,timelimit_screen,1001,NaN,NaN,,NaN,0,1,0,NaN,NaN,1,NaN,NaN,trial_right,blueBox.png,blueBox.png,greenBox.png,al2_uncon.png,49,28,NaN,NaN,0.85,0.15,1,0,0,1,Stable,Stable,2.84,1.937,1.723,2.815,inexpert
141,1673379945222,10/01/2023 19:45:45,1673379945173,0,10/01/2023 19:45:45,111483,6,task-rbyw,repeat-u7ds#1->-repeat-l3h2#1,26307575,BLIND,7766470,NaN,complete,NaN,63bdb974d4e9ba2e6133b400,computer,Desktop or Laptop,Mac OS 10.15.7,Safari 15.6.1,1920x1080,1679x1017,Start of Day 2,SLS,90,B,NaN,NaN,NaN,Pass,End of Day 1,Pass,NaN,Pass,NaN,Pass,NaN,Start of Day 2,schedule_B,schedule_B,29,14,3,offer,Zone2,response_button_image,568,NaN,NaN,blueBox.png,1,1,0,0,NaN,NaN,NaN,NaN,NaN,trial_right,blueBox.png,blueBox.png,greenBox.png,al2_uncon.png,49,28,NaN,NaN,0.85,0.15,1,0,0,1,Stable,Stable,2.84,1.937,1.723,2.815,inexpert
142,1673379947191,10/01/2023 19:45:47,1673379947165,0,10/01/2023 19:45:47,111483,6,task-rbyw,repeat-u7ds#1->-repeat-l3h2#1,26307575,BLIND,7766470,NaN,complete,NaN,63bdb974d4e9ba2e6133b400,computer,Desktop or Laptop,Mac OS 10.15.7,Safari 15.6.1,1920x1080,1679x1017,Start of Day 2,SLS,90,B,NaN,NaN,NaN,Pass,End of Day 1,Pass,NaN,Pass,NaN,Pass,NaN,Start of Day 2,schedule_B,schedule_B,29,14,4,feedback_l,Zone7,timelimit_screen,2003,NaN,NaN,,NaN,0,1,0,NaN,NaN,1,NaN,NaN,trial_right,blueBox.png,blueBox.png,greenBox.png,al2_uncon.png,49,28,NaN,NaN,0.85,0.15,1,0,0,1,Stable,Stable,2.84,1.937,1.723,2.815,inexpert
143,1673379947338,10/01/2023 19:45:47,1673379947315,0,10/01/2023 19:45:47,111483,6,task-rbyw,repeat-u7ds#1->-repeat-l3h2#1,26307575,BLIND,7766470,NaN,complete,NaN,63bdb974d4e9ba2e6133b400,computer,Desktop or Laptop,Mac OS 10.15.7,Safari 15.6.1,1920x1080,1679x1017,Start of Day 2,SLS,90,B,NaN,NaN,NaN,Pass,End of Day 1,Pass,NaN,Pass,NaN,Pass,NaN,Start of Day 2,schedule_B,schedule_B,29,14,6,end,Zone1,timelimit_screen,149,NaN,NaN,,NaN,0,1,0,NaN,NaN,1,NaN,NaN,trial_right,blueBox.png,blueBox.png,greenBox.png,al2_uncon.png,49,28,NaN,NaN,0.85,0.15,1,0,0,1,Stable,Stable,2.84,1.937,1.723,2.815,inexpert
144,1673379948315,10/01/2023 19:45:48,1673379948289,0,10/01/2023 19:45:48,111483,6,task-rbyw,repeat-u7ds#1->-repeat-l3h2#1,26307575,BLIND,7766470,NaN,complete,NaN,63bdb974d4e9ba2e6133b400,computer,Desktop or Laptop,Mac OS 10.15.7,Safari 15.6.1,1920x1080,1679x1017,Start of Day 2,SLS,90,B,NaN,NaN,NaN,Pass,End of Day 1,Pass,NaN,Pass,NaN,Pass,NaN,Start of Day 2,schedule_B,schedule_B,30,15,1,Screen 1,Zone1,continue_button,960,NaN,NaN,,NaN,0,1,0,NaN,NaN,NaN,NaN,NaN,trial_right,blueBox.png,blueBox.png,greenBox.png,al2_uncon.png,50,29,NaN,NaN,0.85,0.15,1,0,0,1,Stable,Stable,2.941,1.71,0.664,1.336,inexpert
145,1673379949308,10/01/2023 19:45:49,1673379949284,0,10/01/2023 19:45:49,111483,6,task-rbyw,repeat-u7ds#1->-repeat-l3h2#1,26307575,BLIND,7766470,NaN,complete,NaN,63bdb974d4e9ba2e6133b400,computer,Desktop or Laptop,Mac OS 10.15.7,Safari 15.6.1,1920x1080,1679x1017,Start of Day 2,SLS,90,B,NaN,NaN,NaN,Pass,End of Day 1,Pass,NaN,Pass,NaN,Pass,NaN,Start of Day 2,schedule_B,schedule_B,30,15,2,individual,Zone4,timelimit_screen,1001,NaN,NaN,,NaN,0,1,0,NaN,NaN,1,NaN,NaN,trial_right,blueBox.png,blueBox.png,greenBox.png,al2_uncon.png,50,29,NaN,NaN,0.85,0.15,1,0,0,1,Stable,Stable,2.941,1.71,0.664,1.336,inexpert
146,1673379949966,10/01/2023 19:45:49,1673379949954,0,10/01/2023 19:45:49,111483,6,task-rbyw,repeat-u7ds#1->-repeat-l3h2#1,26307575,BLIND,7766470,NaN,complete,NaN,63bdb974d4e9ba2e6133b400,computer,Desktop or Laptop,Mac OS 10.15.7,Safari 15.6.1,1920x1080,1679x1017,Start of Day 2,SLS,90,B,NaN,NaN,NaN,Pass,End of Day 1,Pass,NaN,Pass,NaN,Pass,NaN,Start of Day 2,schedule_B,schedule_B,30,15,3,offer,Zone2,response_button_image,662,NaN,NaN,blueBox.png,1,1,0,0,NaN,NaN,NaN,NaN,NaN,trial_right,blueBox.png,blueBox.png,greenBox.png,al2_uncon.png,50,29,NaN,NaN,0.85,0.15,1,0,0,1,Stable,Stable,2.941,1.71,0.664,1.336,inexpert
147,1673379951985,10/01/2023 19:45:51,1673379951954,0,10/01/2023 19:45:51,111483,6,task-rbyw,repeat-u7ds#1->-repeat-l3h2#1,26307575,BLIND,7766470,NaN,complete,NaN,63bdb974d4e9ba2e6133b400,computer,Desktop or Laptop,Mac OS 10.15.7,Safari 15.6.1,1920x1080,1679x1017,Start of Day 2,SLS,90,B,NaN,NaN,NaN,Pass,End of Day 1,Pass,NaN,Pass,NaN,Pass,NaN,Start of Day 2,schedule_B,schedule_B,30,15,4,feedback_l,Zone7,timelimit_screen,2002,NaN,NaN,,NaN,0,1,0,NaN,NaN,1,NaN,NaN,trial_right,blueBox.png,blueBox.png,greenBox.png,al2_uncon.png,50,29,NaN,NaN,0.85,0.15,1,0,0,1,Stable,Stable,2.941,1.71,0.664,1.336,inexpert
148,1673379952285,10/01/2023 19:45:52,1673379952103,0,10/01/2023 19:45:52,111483,6,task-rbyw,repeat-u7ds#1->-repeat-l3h2#1,26307575,BLIND,7766470,NaN,complete,NaN,63bdb974d4e9ba2e6133b400,computer,Desktop or Laptop,Mac OS 10.15.7,Safari 15.6.1,1920x1080,1679x1017,Start of Day 2,SLS,90,B,NaN,NaN,NaN,Pass,End of Day 1,Pass,NaN,Pass,NaN,Pass,NaN,Start of Day 2,schedule_B,schedule_B,30,15,6,end,Zone1,timelimit_screen,149,NaN,NaN,,NaN,0,1,0,NaN,NaN,1,NaN,NaN,trial_right,blueBox.png,blueBox.png,greenBox.png,al2_uncon.png,50,29,NaN,NaN,0.85,0.15,1,0,0,1,Stable,Stable,2.941,1.71,0.664,1.336,inexpert
149,1673379952715,10/01/2023 19:45:52,1673379952676,0,10/01/2023 19:45:52,111483,6,task-rbyw,repeat-u7ds#1->-repeat-l3h2#1,26307575,BLIND,7766470,NaN,complete,NaN,63bdb974d4e9ba2e6133b400,computer,Desktop or Laptop,Mac OS 10.15.7,Safari 15.6.1,1920x1080,1679x1017,Start of Day 2,SLS,90,B,NaN,NaN,NaN,Pass,End of Day 1,Pass,NaN,Pass,NaN,Pass,NaN,Start of Day 2,schedule_B,schedule_B,31,15,1,Screen 1,Zone1,continue_button,560,NaN,NaN,,NaN,0,1,0,NaN,NaN,NaN,NaN,NaN,trial_left,blueBox.png,greenBox.png,blueBox.png,al2_uncon.png,61,30,NaN,NaN,0.85,0.15,1,0,0,0,Stable,Stable,2.79,1.735,0.601,2.345,inexpert
150,1673379953701,10/01/2023 19:45:53,1673379953673,0,10/01/2023 19:45:53,111483,6,task-rbyw,repeat-u7ds#1->-repeat-l3h2#1,26307575,BLIND,7766470,NaN,complete,NaN,63bdb974d4e9ba2e6133b400,computer,Desktop or Laptop,Mac OS 10.15.7,Safari 15.6.1,1920x1080,1679x1017,Start of Day 2,SLS,90,B,NaN,NaN,NaN,Pass,End of Day 1,Pass,NaN,Pass,NaN,Pass,NaN,Start of Day 2,schedule_B,schedule_B,31,15,2,individual,Zone4,timelimit_screen,1001,NaN,NaN,,NaN,0,1,0,NaN,NaN,1,NaN,NaN,trial_left,blueBox.png,greenBox.png,blueBox.png,al2_uncon.png,61,30,NaN,NaN,0.85,0.15,1,0,0,0,Stable,Stable,2.79,1.735,0.601,2.345,inexpert
151,1673379954576,10/01/2023 19:45:54,1673379954555,0,10/01/2023 19:45:54,111483,6,task-rbyw,repeat-u7ds#1->-repeat-l3h2#1,26307575,BLIND,7766470,NaN,complete,NaN,63bdb974d4e9ba2e6133b400,computer,Desktop or Laptop,Mac OS 10.15.7,Safari 15.6.1,1920x1080,1679x1017,Start of Day 2,SLS,90,B,NaN,NaN,NaN,Pass,End of Day 1,Pass,NaN,Pass,NaN,Pass,NaN,Start of Day 2,schedule_B,schedule_B,31,15,3,offer,bluebox,response_button_image,874,NaN,NaN,blueBox.png,1,1,0,0,NaN,NaN,NaN,NaN,NaN,trial_left,blueBox.png,greenBox.png,blueBox.png,al2_uncon.png,61,30,NaN,NaN,0.85,0.15,1,0,0,0,Stable,Stable,2.79,1.735,0.601,2.345,inexpert
152,1673379956558,10/01/2023 19:45:56,1673379956542,0,10/01/2023 19:45:56,111483,6,task-rbyw,repeat-u7ds#1->-repeat-l3h2#1,26307575,BLIND,7766470,NaN,complete,NaN,63bdb974d4e9ba2e6133b400,computer,Desktop or Laptop,Mac OS 10.15.7,Safari 15.6.1,1920x1080,1679x1017,Start of Day 2,SLS,90,B,NaN,NaN,NaN,Pass,End of Day 1,Pass,NaN,Pass,NaN,Pass,NaN,Start of Day 2,schedule_B,schedule_B,31,15,5,feedback_r,Zone7,timelimit_screen,2002,NaN,NaN,,NaN,0,1,0,NaN,NaN,1,NaN,NaN,trial_left,blueBox.png,greenBox.png,blueBox.png,al2_uncon.png,61,30,NaN,NaN,0.85,0.15,1,0,0,0,Stable,Stable,2.79,1.735,0.601,2.345,inexpert
153,1673379956714,10/01/2023 19:45:56,1673379956692,0,10/01/2023 19:45:56,111483,6,task-rbyw,repeat-u7ds#1->-repeat-l3h2#1,26307575,BLIND,7766470,NaN,complete,NaN,63bdb974d4e9ba2e6133b400,computer,Desktop or Laptop,Mac OS 10.15.7,Safari 15.6.1,1920x1080,1679x1017,Start of Day 2,SLS,90,B,NaN,NaN,NaN,Pass,End of Day 1,Pass,NaN,Pass,NaN,Pass,NaN,Start of Day 2,schedule_B,schedule_B,31,15,6,end,Zone1,timelimit_screen,150,NaN,NaN,,NaN,0,1,0,NaN,NaN,1,NaN,NaN,trial_left,blueBox.png,greenBox.png,blueBox.png,al2_uncon.png,61,30,NaN,NaN,0.85,0.15,1,0,0,0,Stable,Stable,2.79,1.735,0.601,2.345,inexpert
154,1673379957543,10/01/2023 19:45:57,1673379957514,0,10/01/2023 19:45:57,111483,6,task-rbyw,repeat-u7ds#1->-repeat-l3h2#1,26307575,BLIND,7766470,NaN,complete,NaN,63bdb974d4e9ba2e6133b400,computer,Desktop or Laptop,Mac OS 10.15.7,Safari 15.6.1,1920x1080,1679x1017,Start of Day 2,SLS,90,B,NaN,NaN,NaN,Pass,End of Day 1,Pass,NaN,Pass,NaN,Pass,NaN,Start of Day 2,schedule_B,schedule_B,32,16,1,Screen 1,Zone1,continue_button,805,NaN,NaN,,NaN,0,1,0,NaN,NaN,NaN,NaN,NaN,trial_right,blueBox.png,greenBox.png,blueBox.png,al2_uncon.png,62,31,NaN,NaN,0.85,0.85,1,1,1,0,Volatile,Volatile,2.538,1.672,1.143,1.555,inexpert
155,1673379958756,10/01/2023 19:45:58,1673379958511,0,10/01/2023 19:45:58,111483,6,task-rbyw,repeat-u7ds#1->-repeat-l3h2#1,26307575,BLIND,7766470,NaN,complete,NaN,63bdb974d4e9ba2e6133b400,computer,Desktop or Laptop,Mac OS 10.15.7,Safari 15.6.1,1920x1080,1679x1017,Start of Day 2,SLS,90,B,NaN,NaN,NaN,Pass,End of Day 1,Pass,NaN,Pass,NaN,Pass,NaN,Start of Day 2,schedule_B,schedule_B,32,16,2,individual,Zone4,timelimit_screen,1002,NaN,NaN,,NaN,0,1,0,NaN,NaN,1,NaN,NaN,trial_right,blueBox.png,greenBox.png,blueBox.png,al2_uncon.png,62,31,NaN,NaN,0.85,0.85,1,1,1,0,Volatile,Volatile,2.538,1.672,1.143,1.555,inexpert
156,1673379959302,10/01/2023 19:45:59,1673379959280,0,10/01/2023 19:45:59,111483,6,task-rbyw,repeat-u7ds#1->-repeat-l3h2#1,26307575,BLIND,7766470,NaN,complete,NaN,63bdb974d4e9ba2e6133b400,computer,Desktop or Laptop,Mac OS 10.15.7,Safari 15.6.1,1920x1080,1679x1017,Start of Day 2,SLS,90,B,NaN,NaN,NaN,Pass,End of Day 1,Pass,NaN,Pass,NaN,Pass,NaN,Start of Day 2,schedule_B,schedule_B,32,16,3,offer,Zone3,response_button_image,761,NaN,NaN,blueBox.png,1,1,0,0,NaN,NaN,NaN,NaN,NaN,trial_right,blueBox.png,greenBox.png,blueBox.png,al2_uncon.png,62,31,NaN,NaN,0.85,0.85,1,1,1,0,Volatile,Volatile,2.538,1.672,1.143,1.555,inexpert
157,1673379961302,10/01/2023 19:46:01,1673379961280,0,10/01/2023 19:46:01,111483,6,task-rbyw,repeat-u7ds#1->-repeat-l3h2#1,26307575,BLIND,7766470,NaN,complete,NaN,63bdb974d4e9ba2e6133b400,computer,Desktop or Laptop,Mac OS 10.15.7,Safari 15.6.1,1920x1080,1679x1017,Start of Day 2,SLS,90,B,NaN,NaN,NaN,Pass,End of Day 1,Pass,NaN,Pass,NaN,Pass,NaN,Start of Day 2,schedule_B,schedule_B,32,16,5,feedback_r,Zone7,timelimit_screen,2002,NaN,NaN,,NaN,0,1,0,NaN,NaN,1,NaN,NaN,trial_right,blueBox.png,greenBox.png,blueBox.png,al2_uncon.png,62,31,NaN,NaN,0.85,0.85,1,1,1,0,Volatile,Volatile,2.538,1.672,1.143,1.555,inexpert
158,1673379961462,10/01/2023 19:46:01,1673379961431,0,10/01/2023 19:46:01,111483,6,task-rbyw,repeat-u7ds#1->-repeat-l3h2#1,26307575,BLIND,7766470,NaN,complete,NaN,63bdb974d4e9ba2e6133b400,computer,Desktop or Laptop,Mac OS 10.15.7,Safari 15.6.1,1920x1080,1679x1017,Start of Day 2,SLS,90,B,NaN,NaN,NaN,Pass,End of Day 1,Pass,NaN,Pass,NaN,Pass,NaN,Start of Day 2,schedule_B,schedule_B,32,16,6,end,Zone1,timelimit_screen,150,NaN,NaN,,NaN,0,1,0,NaN,NaN,1,NaN,NaN,trial_right,blueBox.png,greenBox.png,blueBox.png,al2_uncon.png,62,31,NaN,NaN,0.85,0.85,1,1,1,0,Volatile,Volatile,2.538,1.672,1.143,1.555,inexpert
159,1673379962315,10/01/2023 19:46:02,1673379962306,0,10/01/2023 19:46:02,111483,6,task-rbyw,repeat-u7ds#1->-repeat-l3h2#1,26307575,BLIND,7766470,NaN,complete,NaN,63bdb974d4e9ba2e6133b400,computer,Desktop or Laptop,Mac OS 10.15.7,Safari 15.6.1,1920x1080,1679x1017,Start of Day 2,SLS,90,B,NaN,NaN,NaN,Pass,End of Day 1,Pass,NaN,Pass,NaN,Pass,NaN,Start of Day 2,schedule_B,schedule_B,33,16,1,Screen 1,Zone1,continue_button,862,NaN,NaN,,NaN,0,1,0,NaN,NaN,NaN,NaN,NaN,trial_left,blueBox.png,greenBox.png,blueBox.png,al2_uncon.png,63,32,NaN,NaN,0.85,0.85,1,0,0,0,Volatile,Volatile,2.739,1.13,0.815,1.387,inexpert
160,1673379963325,10/01/2023 19:46:03,1673379963299,0,10/01/2023 19:46:03,111483,6,task-rbyw,repeat-u7ds#1->-repeat-l3h2#1,26307575,BLIND,7766470,NaN,complete,NaN,63bdb974d4e9ba2e6133b400,computer,Desktop or Laptop,Mac OS 10.15.7,Safari 15.6.1,1920x1080,1679x1017,Start of Day 2,SLS,90,B,NaN,NaN,NaN,Pass,End of Day 1,Pass,NaN,Pass,NaN,Pass,NaN,Start of Day 2,schedule_B,schedule_B,33,16,2,individual,Zone4,timelimit_screen,1002,NaN,NaN,,NaN,0,1,0,NaN,NaN,1,NaN,NaN,trial_left,blueBox.png,greenBox.png,blueBox.png,al2_uncon.png,63,32,NaN,NaN,0.85,0.85,1,0,0,0,Volatile,Volatile,2.739,1.13,0.815,1.387,inexpert
161,1673379963986,10/01/2023 19:46:03,1673379963960,0,10/01/2023 19:46:03,111483,6,task-rbyw,repeat-u7ds#1->-repeat-l3h2#1,26307575,BLIND,7766470,NaN,complete,NaN,63bdb974d4e9ba2e6133b400,computer,Desktop or Laptop,Mac OS 10.15.7,Safari 15.6.1,1920x1080,1679x1017,Start of Day 2,SLS,90,B,NaN,NaN,NaN,Pass,End of Day 1,Pass,NaN,Pass,NaN,Pass,NaN,Start of Day 2,schedule_B,schedule_B,33,16,3,offer,bluebox,response_button_image,653,NaN,NaN,blueBox.png,1,1,0,0,NaN,NaN,NaN,NaN,NaN,trial_left,blueBox.png,greenBox.png,blueBox.png,al2_uncon.png,63,32,NaN,NaN,0.85,0.85,1,0,0,0,Volatile,Volatile,2.739,1.13,0.815,1.387,inexpert
162,1673379965968,10/01/2023 19:46:05,1673379965952,0,10/01/2023 19:46:05,111483,6,task-rbyw,repeat-u7ds#1->-repeat-l3h2#1,26307575,BLIND,7766470,NaN,complete,NaN,63bdb974d4e9ba2e6133b400,computer,Desktop or Laptop,Mac OS 10.15.7,Safari 15.6.1,1920x1080,1679x1017,Start of Day 2,SLS,90,B,NaN,NaN,NaN,Pass,End of Day 1,Pass,NaN,Pass,NaN,Pass,NaN,Start of Day 2,schedule_B,schedule_B,33,16,5,feedback_r,Zone7,timelimit_screen,2002,NaN,NaN,,NaN,0,1,0,NaN,NaN,1,NaN,NaN,trial_left,blueBox.png,greenBox.png,blueBox.png,al2_uncon.png,63,32,NaN,NaN,0.85,0.85,1,0,0,0,Volatile,Volatile,2.739,1.13,0.815,1.387,inexpert
163,1673379966113,10/01/2023 19:46:06,1673379966102,0,10/01/2023 19:46:06,111483,6,task-rbyw,repeat-u7ds#1->-repeat-l3h2#1,26307575,BLIND,7766470,NaN,complete,NaN,63bdb974d4e9ba2e6133b400,computer,Desktop or Laptop,Mac OS 10.15.7,Safari 15.6.1,1920x1080,1679x1017,Start of Day 2,SLS,90,B,NaN,NaN,NaN,Pass,End of Day 1,Pass,NaN,Pass,NaN,Pass,NaN,Start of Day 2,schedule_B,schedule_B,33,16,6,end,Zone1,timelimit_screen,150,NaN,NaN,,NaN,0,1,0,NaN,NaN,1,NaN,NaN,trial_left,blueBox.png,greenBox.png,blueBox.png,al2_uncon.png,63,32,NaN,NaN,0.85,0.85,1,0,0,0,Volatile,Volatile,2.739,1.13,0.815,1.387,inexpert
