EventIndex,UTCTimestamp,UTCDate,LocalTimestamp,LocalTimezone,LocalDate,ExperimentID,ExperimentVersion,TreeNodeKey,RepeatKey,ScheduleID,ParticipantPublicID,ParticipantPrivateID,ParticipantStartingGroup,ParticipantStatus,ParticipantCompletionCode,ParticipantExternalSessionID,ParticipantDeviceType,ParticipantDevice,ParticipantOS,ParticipantBrowser,ParticipantMonitorSize,ParticipantViewportSize,Checkpoint,TaskName,TaskVersion,randomiser_6z9f,branch_kxy7,checkpoint_tqwf,branch_rtog,branch_7dgx,checkpoint_mqen,branch_yx2c,branch_3n8o,branch_f1s6,branch_x6l7,branch_21hs,checkpoint_iz27,checkpoint_sry6,Spreadsheet,SpreadsheetName,SpreadsheetRow,TrialNumber,ScreenNumber,ScreenName,ZoneName,ZoneType,ReactionTime,ReactionOnset,ResponseType,Response,Attempt,Correct,Incorrect,Dishonest,XCoordinate,YCoordinate,TimedOut,randomise_blocks,randomise_trials,display,ANSWER,left_button,right_button,advice,orderno,trialno,ShowProgressBar,image,prob_blue_corr,prob_group_corr,corr_ans,group_corr,group_choice,blue_pos,indiv_vol,soc_vol,ITI_1,ITI_2,ITI_3,ITI_4,condition
1,1673378773816,10/01/2023 19:26:13,1673378773593,0,10/01/2023 19:26:13,111483,5,task-rbyw,repeat-u7ds#1->-repeat-l3h2#1,26307245,BLIND,7766384,NaN,complete,NaN,63bdb64bc7338fb4af0e3822,computer,Desktop or Laptop,Chromium OS 15183.69.0,Chrome 108.0.0.0,1536x864,1536x864,Start of Day 2,SLS,90,B,NaN,NaN,NaN,Pass,End of Day 1,Pass,NaN,Pass,NaN,Pass,NaN,Start of Day 2,schedule_B,,NaN,NaN,NaN,,,,NaN,NaN,NaN,,NaN,0,1,0,NaN,NaN,NaN,NaN,NaN,,,,,,NaN,NaN,NaN,NaN,NaN,NaN,NaN,NaN,NaN,NaN,,,NaN,NaN,NaN,NaN,
2,1673378775983,10/01/2023 19:26:15,1673378775809,0,10/01/2023 19:26:15,111483,5,task-rbyw,repeat-u7ds#1->-repeat-l3h2#1,26307245,BLIND,7766384,NaN,complete,NaN,63bdb64bc7338fb4af0e3822,computer,Desktop or Laptop,Chromium OS 15183.69.0,Chrome 108.0.0.0,1536x864,1536x864,Start of Day 2,SLS,90,B,NaN,NaN,NaN,Pass,End of Day 1,Pass,NaN,Pass,NaN,Pass,NaN,Start of Day 2,schedule_B,schedule_B,1,1,1,Screen 1,Zone1,continue_button,1647.59999999404,NaN,NaN,,NaN,0,1,0,NaN,NaN,NaN,NaN,NaN,getReadyb,,,,,1,NaN,NaN,NaN,NaN,NaN,NaN,NaN,NaN,NaN,,,NaN,NaN,NaN,NaN,
3,1673378777726,10/01/2023 19:26:17,1673378777540,0,10/01/2023 19:26:17,111483,5,task-rbyw,repeat-u7ds#1->-repeat-l3h2#1,26307245,BLIND,7766384,NaN,complete,NaN,63bdb64bc7338fb4af0e3822,computer,Desktop or Laptop,Chromium OS 15183.69.0,Chrome 108.0.0.0,1536x864,1536x864,Start of Day 2,SLS,90,B,NaN,NaN,NaN,Pass,End of Day 1,Pass,NaN,Pass,NaN,Pass,NaN,Start of Day 2,schedule_B,schedule_B,1,1,2,Screen 2,Zone1,continue_button,1718.70000000298,NaN,NaN,,NaN,0,1,0,NaN,NaN,NaN,NaN,NaN,getReadyb,,,,,1,NaN,NaN,NaN,NaN,NaN,NaN,NaN,NaN,NaN,,,NaN,NaN,NaN,NaN,
4,1673378782739,10/01/2023 19:26:22,1673378782377,0,10/01/2023 19:26:22,111483,5,task-rbyw,repeat-u7ds#1->-repeat-l3h2#1,26307245,BLIND,7766384,NaN,complete,NaN,63bdb64bc7338fb4af0e3822,computer,Desktop or Laptop,Chromium OS 15183.69.0,Chrome 108.0.0.0,1536x864,1536x864,Start of Day 2,SLS,90,B,NaN,NaN,NaN,Pass,End of Day 1,Pass,NaN,Pass,NaN,Pass,NaN,Start of Day 2,schedule_B,schedule_B,2,1,1,Screen 1,Zone1,continue_button,4799.29999999702,NaN,NaN,,NaN,0,1,0,NaN,NaN,NaN,NaN,NaN,trial_right,greenBox.png,greenBox.png,blueBox.png,al2_uncon.png,2,1,NaN,NaN,0.85,0.15,0,0,1,0,Stable,Stable,3.471,0.525,1.66,2.529,inexpert
5,1673378783548,10/01/2023 19:26:23,1673378783366,0,10/01/2023 19:26:23,111483,5,task-rbyw,repeat-u7ds#1->-repeat-l3h2#1,26307245,BLIND,7766384,NaN,complete,NaN,63bdb64bc7338fb4af0e3822,computer,Desktop or Laptop,Chromium OS 15183.69.0,Chrome 108.0.0.0,1536x864,1536x864,Start of Day 2,SLS,90,B,NaN,NaN,NaN,Pass,End of Day 1,Pass,NaN,Pass,NaN,Pass,NaN,Start of Day 2,schedule_B,schedule_B,2,1,2,individual,Zone4,timelimit_screen,999.656999999999,NaN,NaN,,NaN,0,1,0,NaN,NaN,1,NaN,NaN,trial_right,greenBox.png,greenBox.png,blueBox.png,al2_uncon.png,2,1,NaN,NaN,0.85,0.15,0,0,1,0,Stable,Stable,3.471,0.525,1.66,2.529,inexpert
6,1673378784480,10/01/2023 19:26:24,1673378784328,0,10/01/2023 19:26:24,111483,5,task-rbyw,repeat-u7ds#1->-repeat-l3h2#1,26307245,BLIND,7766384,NaN,complete,NaN,63bdb64bc7338fb4af0e3822,computer,Desktop or Laptop,Chromium OS 15183.69.0,Chrome 108.0.0.0,1536x864,1536x864,Start of Day 2,SLS,90,B,NaN,NaN,NaN,Pass,End of Day 1,Pass,NaN,Pass,NaN,Pass,NaN,Start of Day 2,schedule_B,schedule_B,2,1,3,offer,Zone3,response_button_image,934.70000000298,NaN,NaN,blueBox.png,1,0,1,0,NaN,NaN,NaN,NaN,NaN,trial_right,greenBox.png,greenBox.png,blueBox.png,al2_uncon.png,2,1,NaN,NaN,0.85,0.15,0,0,1,0,Stable,Stable,3.471,0.525,1.66,2.529,inexpert
7,1673378786475,10/01/2023 19:26:26,1673378786315,0,10/01/2023 19:26:26,111483,5,task-rbyw,repeat-u7ds#1->-repeat-l3h2#1,26307245,BLIND,7766384,NaN,complete,NaN,63bdb64bc7338fb4af0e3822,computer,Desktop or Laptop,Chromium OS 15183.69.0,Chrome 108.0.0.0,1536x864,1536x864,Start of Day 2,SLS,90,B,NaN,NaN,NaN,Pass,End of Day 1,Pass,NaN,Pass,NaN,Pass,NaN,Start of Day 2,schedule_B,schedule_B,2,1,5,feedback_r,Zone7,timelimit_screen,1999.33,NaN,NaN,,NaN,0,1,0,NaN,NaN,1,NaN,NaN,trial_right,greenBox.png,greenBox.png,blueBox.png,al2_uncon.png,2,1,NaN,NaN,0.85,0.15,0,0,1,0,Stable,Stable,3.471,0.525,1.66,2.529,inexpert
8,1673378786665,10/01/2023 19:26:26,1673378786465,0,10/01/2023 19:26:26,111483,5,task-rbyw,repeat-u7ds#1->-repeat-l3h2#1,26307245,BLIND,7766384,NaN,complete,NaN,63bdb64bc7338fb4af0e3822,computer,Desktop or Laptop,Chromium OS 15183.69.0,Chrome 108.0.0.0,1536x864,1536x864,Start of Day 2,SLS,90,B,NaN,NaN,NaN,Pass,End of Day 1,Pass,NaN,Pass,NaN,Pass,NaN,Start of Day 2,schedule_B,schedule_B,2,1,6,end,Zone1,timelimit_screen,149.958999999999,NaN,NaN,,NaN,0,1,0,NaN,NaN,1,NaN,NaN,trial_right,greenBox.png,greenBox.png,blueBox.png,al2_uncon.png,2,1,NaN,NaN,0.85,0.15,0,0,1,0,Stable,Stable,3.471,0.525,1.66,2.529,inexpert
9,1673378787568,10/01/2023 19:26:27,1673378787414,0,10/01/2023 19:26:27,111483,5,task-rbyw,repeat-u7ds#1->-repeat-l3h2#1,26307245,BLIND,7766384,NaN,complete,NaN,63bdb64bc7338fb4af0e3822,computer,Desktop or Laptop,Chromium OS 15183.69.0,Chrome 108.0.0.0,1536x864,1536x864,Start of Day 2,SLS,90,B,NaN,NaN,NaN,Pass,End of Day 1,Pass,NaN,Pass,NaN,Pass,NaN,Start of Day 2,schedule_B,schedule_B,3,1,1,Screen 1,Zone1,continue_button,915,NaN,NaN,,NaN,0,1,0,NaN,NaN,NaN,NaN,NaN,trial_left,blueBox.png,greenBox.png,blueBox.png,al2_uncon.png,3,2,NaN,NaN,0.85,0.15,1,0,0,0,Stable,Stable,1.782,1.168,1.168,2.462,inexpert
10,1673378788675,10/01/2023 19:26:28,1673378788398,0,10/01/2023 19:26:28,111483,5,task-rbyw,repeat-u7ds#1->-repeat-l3h2#1,26307245,BLIND,7766384,NaN,complete,NaN,63bdb64bc7338fb4af0e3822,computer,Desktop or Laptop,Chromium OS 15183.69.0,Chrome 108.0.0.0,1536x864,1536x864,Start of Day 2,SLS,90,B,NaN,NaN,NaN,Pass,End of Day 1,Pass,NaN,Pass,NaN,Pass,NaN,Start of Day 2,schedule_B,schedule_B,3,1,2,individual,Zone4,timelimit_screen,999.614,NaN,NaN,,NaN,0,1,0,NaN,NaN,1,NaN,NaN,trial_left,blueBox.png,greenBox.png,blueBox.png,al2_uncon.png,3,2,NaN,NaN,0.85,0.15,1,0,0,0,Stable,Stable,1.782,1.168,1.168,2.462,inexpert
11,1673378789441,10/01/2023 19:26:29,1673378789274,0,10/01/2023 19:26:29,111483,5,task-rbyw,repeat-u7ds#1->-repeat-l3h2#1,26307245,BLIND,7766384,NaN,complete,NaN,63bdb64bc7338fb4af0e3822,computer,Desktop or Laptop,Chromium OS 15183.69.0,Chrome 108.0.0.0,1536x864,1536x864,Start of Day 2,SLS,90,B,NaN,NaN,NaN,Pass,End of Day 1,Pass,NaN,Pass,NaN,Pass,NaN,Start of Day 2,schedule_B,schedule_B,3,1,3,offer,Zone2,response_button_image,857.09999999404,NaN,NaN,greenBox.png,1,0,1,0,NaN,NaN,NaN,NaN,NaN,trial_left,blueBox.png,greenBox.png,blueBox.png,al2_uncon.png,3,2,NaN,NaN,0.85,0.15,1,0,0,0,Stable,Stable,1.782,1.168,1.168,2.462,inexpert
12,1673378791423,10/01/2023 19:26:31,1673378791264,0,10/01/2023 19:26:31,111483,5,task-rbyw,repeat-u7ds#1->-repeat-l3h2#1,26307245,BLIND,7766384,NaN,complete,NaN,63bdb64bc7338fb4af0e3822,computer,Desktop or Laptop,Chromium OS 15183.69.0,Chrome 108.0.0.0,1536x864,1536x864,Start of Day 2,SLS,90,B,NaN,NaN,NaN,Pass,End of Day 1,Pass,NaN,Pass,NaN,Pass,NaN,Start of Day 2,schedule_B,schedule_B,3,1,4,feedback_l,Zone7,timelimit_screen,1999.261,NaN,NaN,,NaN,0,1,0,NaN,NaN,1,NaN,NaN,trial_left,blueBox.png,greenBox.png,blueBox.png,al2_uncon.png,3,2,NaN,NaN,0.85,0.15,1,0,0,0,Stable,Stable,1.782,1.168,1.168,2.462,inexpert
13,1673378791563,10/01/2023 19:26:31,1673378791414,0,10/01/2023 19:26:31,111483,5,task-rbyw,repeat-u7ds#1->-repeat-l3h2#1,26307245,BLIND,7766384,NaN,complete,NaN,63bdb64bc7338fb4af0e3822,computer,Desktop or Laptop,Chromium OS 15183.69.0,Chrome 108.0.0.0,1536x864,1536x864,Start of Day 2,SLS,90,B,NaN,NaN,NaN,Pass,End of Day 1,Pass,NaN,Pass,NaN,Pass,NaN,Start of Day 2,schedule_B,schedule_B,3,1,6,end,Zone1,timelimit_screen,150.065999999999,NaN,NaN,,NaN,0,1,0,NaN,NaN,1,NaN,NaN,trial_left,blueBox.png,greenBox.png,blueBox.png,al2_uncon.png,3,2,NaN,NaN,0.85,0.15,1,0,0,0,Stable,Stable,1.782,1.168,1.168,2.462,inexpert
14,1673378793072,10/01/2023 19:26:33,1673378792906,0,10/01/2023 19:26:32,111483,5,task-rbyw,repeat-u7ds#1->-repeat-l3h2#1,26307245,BLIND,7766384,NaN,complete,NaN,63bdb64bc7338fb4af0e3822,computer,Desktop or Laptop,Chromium OS 15183.69.0,Chrome 108.0.0.0,1536x864,1536x864,Start of Day 2,SLS,90,B,NaN,NaN,NaN,Pass,End of Day 1,Pass,NaN,Pass,NaN,Pass,NaN,Start of Day 2,schedule_B,schedule_B,4,2,1,Screen 1,Zone1,continue_button,1456.70000000298,NaN,NaN,,NaN,0,1,0,NaN,NaN,NaN,NaN,NaN,trial_left,blueBox.png,greenBox.png,blueBox.png,al2_uncon.png,4,3,NaN,NaN,0.85,0.15,1,0,0,0,Stable,Stable,1.983,1.181,0.538,1.588,inexpert
15,1673378794062,10/01/2023 19:26:34,1673378793896,0,10/01/2023 19:26:33,111483,5,task-rbyw,repeat-u7ds#1->-repeat-l3h2#1,26307245,BLIND,7766384,NaN,complete,NaN,63bdb64bc7338fb4af0e3822,computer,Desktop or Laptop,Chromium OS 15183.69.0,Chrome 108.0.0.0,1536x864,1536x864,Start of Day 2,SLS,90,B,NaN,NaN,NaN,Pass,End of Day 1,Pass,NaN,Pass,NaN,Pass,NaN,Start of Day 2,schedule_B,schedule_B,4,2,2,individual,Zone4,timelimit_screen,999.616999999998,NaN,NaN,,NaN,0,1,0,NaN,NaN,1,NaN,NaN,trial_left,blueBox.png,greenBox.png,blueBox.png,al2_uncon.png,4,3,NaN,NaN,0.85,0.15,1,0,0,0,Stable,Stable,1.983,1.181,0.538,1.588,inexpert
16,1673378794906,10/01/2023 19:26:34,1673378794757,0,10/01/2023 19:26:34,111483,5,task-rbyw,repeat-u7ds#1->-repeat-l3h2#1,26307245,BLIND,7766384,NaN,complete,NaN,63bdb64bc7338fb4af0e3822,computer,Desktop or Laptop,Chromium OS 15183.69.0,Chrome 108.0.0.0,1536x864,1536x864,Start of Day 2,SLS,90,B,NaN,NaN,NaN,Pass,End of Day 1,Pass,NaN,Pass,NaN,Pass,NaN,Start of Day 2,schedule_B,schedule_B,4,2,3,offer,bluebox,response_button_image,844.699999988079,NaN,NaN,blueBox.png,1,1,0,0,NaN,NaN,NaN,NaN,NaN,trial_left,blueBox.png,greenBox.png,blueBox.png,al2_uncon.png,4,3,NaN,NaN,0.85,0.15,1,0,0,0,Stable,Stable,1.983,1.181,0.538,1.588,inexpert
17,1673378796895,10/01/2023 19:26:36,1673378796745,0,10/01/2023 19:26:36,111483,5,task-rbyw,repeat-u7ds#1->-repeat-l3h2#1,26307245,BLIND,7766384,NaN,complete,NaN,63bdb64bc7338fb4af0e3822,computer,Desktop or Laptop,Chromium OS 15183.69.0,Chrome 108.0.0.0,1536x864,1536x864,Start of Day 2,SLS,90,B,NaN,NaN,NaN,Pass,End of Day 1,Pass,NaN,Pass,NaN,Pass,NaN,Start of Day 2,schedule_B,schedule_B,4,2,5,feedback_r,Zone7,timelimit_screen,1999.25,NaN,NaN,,NaN,0,1,0,NaN,NaN,1,NaN,NaN,trial_left,blueBox.png,greenBox.png,blueBox.png,al2_uncon.png,4,3,NaN,NaN,0.85,0.15,1,0,0,0,Stable,Stable,1.983,1.181,0.538,1.588,inexpert
18,1673378797053,10/01/2023 19:26:37,1673378796895,0,10/01/2023 19:26:36,111483,5,task-rbyw,repeat-u7ds#1->-repeat-l3h2#1,26307245,BLIND,7766384,NaN,complete,NaN,63bdb64bc7338fb4af0e3822,computer,Desktop or Laptop,Chromium OS 15183.69.0,Chrome 108.0.0.0,1536x864,1536x864,Start of Day 2,SLS,90,B,NaN,NaN,NaN,Pass,End of Day 1,Pass,NaN,Pass,NaN,Pass,NaN,Start of Day 2,schedule_B,schedule_B,4,2,6,end,Zone1,timelimit_screen,150.074000000001,NaN,NaN,,NaN,0,1,0,NaN,NaN,1,NaN,NaN,trial_left,blueBox.png,greenBox.png,blueBox.png,al2_uncon.png,4,3,NaN,NaN,0.85,0.15,1,0,0,0,Stable,Stable,1.983,1.181,0.538,1.588,inexpert
19,1673378798013,10/01/2023 19:26:38,1673378797863,0,10/01/2023 19:26:37,111483,5,task-rbyw,repeat-u7ds#1->-repeat-l3h2#1,26307245,BLIND,7766384,NaN,complete,NaN,63bdb64bc7338fb4af0e3822,computer,Desktop or Laptop,Chromium OS 15183.69.0,Chrome 108.0.0.0,1536x864,1536x864,Start of Day 2,SLS,90,B,NaN,NaN,NaN,Pass,End of Day 1,Pass,NaN,Pass,NaN,Pass,NaN,Start of Day 2,schedule_B,schedule_B,5,2,1,Screen 1,Zone1,continue_button,933.59999999404,NaN,NaN,,NaN,0,1,0,NaN,NaN,NaN,NaN,NaN,trial_right,greenBox.png,greenBox.png,blueBox.png,al2_uncon.png,5,4,NaN,NaN,0.85,0.15,0,0,1,0,Stable,Stable,1.529,0.891,1.004,1,inexpert
20,1673378799131,10/01/2023 19:26:39,1673378798849,0,10/01/2023 19:26:38,111483,5,task-rbyw,repeat-u7ds#1->-repeat-l3h2#1,26307245,BLIND,7766384,NaN,complete,NaN,63bdb64bc7338fb4af0e3822,computer,Desktop or Laptop,Chromium OS 15183.69.0,Chrome 108.0.0.0,1536x864,1536x864,Start of Day 2,SLS,90,B,NaN,NaN,NaN,Pass,End of Day 1,Pass,NaN,Pass,NaN,Pass,NaN,Start of Day 2,schedule_B,schedule_B,5,2,2,individual,Zone4,timelimit_screen,999.616999999998,NaN,NaN,,NaN,0,1,0,NaN,NaN,1,NaN,NaN,trial_right,greenBox.png,greenBox.png,blueBox.png,al2_uncon.png,5,4,NaN,NaN,0.85,0.15,0,0,1,0,Stable,Stable,1.529,0.891,1.004,1,inexpert
21,1673378799985,10/01/2023 19:26:39,1673378799832,0,10/01/2023 19:26:39,111483,5,task-rbyw,repeat-u7ds#1->-repeat-l3h2#1,26307245,BLIND,7766384,NaN,complete,NaN,63bdb64bc7338fb4af0e3822,computer,Desktop or Laptop,Chromium OS 15183.69.0,Chrome 108.0.0.0,1536x864,1536x864,Start of Day 2,SLS,90,B,NaN,NaN,NaN,Pass,End of Day 1,Pass,NaN,Pass,NaN,Pass,NaN,Start of Day 2,schedule_B,schedule_B,5,2,3,offer,Zone2,response_button_image,963.09999999404,NaN,NaN,greenBox.png,1,1,0,0,NaN,NaN,NaN,NaN,NaN,trial_right,greenBox.png,greenBox.png,blueBox.png,al2_uncon.png,5,4,NaN,NaN,0.85,0.15,0,0,1,0,Stable,Stable,1.529,0.891,1.004,1,inexpert
22,1673378801980,10/01/2023 19:26:41,1673378801826,0,10/01/2023 19:26:41,111483,5,task-rbyw,repeat-u7ds#1->-repeat-l3h2#1,26307245,BLIND,7766384,NaN,complete,NaN,63bdb64bc7338fb4af0e3822,computer,Desktop or Laptop,Chromium OS 15183.69.0,Chrome 108.0.0.0,1536x864,1536x864,Start of Day 2,SLS,90,B,NaN,NaN,NaN,Pass,End of Day 1,Pass,NaN,Pass,NaN,Pass,NaN,Start of Day 2,schedule_B,schedule_B,5,2,4,feedback_l,Zone7,timelimit_screen,1999.271,NaN,NaN,,NaN,0,1,0,NaN,NaN,1,NaN,NaN,trial_right,greenBox.png,greenBox.png,blueBox.png,al2_uncon.png,5,4,NaN,NaN,0.85,0.15,0,0,1,0,Stable,Stable,1.529,0.891,1.004,1,inexpert
23,1673378802188,10/01/2023 19:26:42,1673378801976,0,10/01/2023 19:26:41,111483,5,task-rbyw,repeat-u7ds#1->-repeat-l3h2#1,26307245,BLIND,7766384,NaN,complete,NaN,63bdb64bc7338fb4af0e3822,computer,Desktop or Laptop,Chromium OS 15183.69.0,Chrome 108.0.0.0,1536x864,1536x864,Start of Day 2,SLS,90,B,NaN,NaN,NaN,Pass,End of Day 1,Pass,NaN,Pass,NaN,Pass,NaN,Start of Day 2,schedule_B,schedule_B,5,2,6,end,Zone1,timelimit_screen,150.049999999999,NaN,NaN,,NaN,0,1,0,NaN,NaN,1,NaN,NaN,trial_right,greenBox.png,greenBox.png,blueBox.png,al2_uncon.png,5,4,NaN,NaN,0.85,0.15,0,0,1,0,Stable,Stable,1.529,0.891,1.004,1,inexpert
24,1673378802985,10/01/2023 19:26:42,1673378802830,0,10/01/2023 19:26:42,111483,5,task-rbyw,repeat-u7ds#1->-repeat-l3h2#1,26307245,BLIND,7766384,NaN,complete,NaN,63bdb64bc7338fb4af0e3822,computer,Desktop or Laptop,Chromium OS 15183.69.0,Chrome 108.0.0.0,1536x864,1536x864,Start of Day 2,SLS,90,B,NaN,NaN,NaN,Pass,End of Day 1,Pass,NaN,Pass,NaN,Pass,NaN,Start of Day 2,schedule_B,schedule_B,6,3,1,Screen 1,Zone1,continue_button,820.70000000298,NaN,NaN,,NaN,0,1,0,NaN,NaN,NaN,NaN,NaN,trial_left,blueBox.png,greenBox.png,blueBox.png,al2_uncon.png,6,5,NaN,NaN,0.85,0.15,1,0,0,0,Stable,Stable,1.832,1.118,0.752,1.79,inexpert
25,1673378803984,10/01/2023 19:26:43,1673378803826,0,10/01/2023 19:26:43,111483,5,task-rbyw,repeat-u7ds#1->-repeat-l3h2#1,26307245,BLIND,7766384,NaN,complete,NaN,63bdb64bc7338fb4af0e3822,computer,Desktop or Laptop,Chromium OS 15183.69.0,Chrome 108.0.0.0,1536x864,1536x864,Start of Day 2,SLS,90,B,NaN,NaN,NaN,Pass,End of Day 1,Pass,NaN,Pass,NaN,Pass,NaN,Start of Day 2,schedule_B,schedule_B,6,3,2,individual,Zone4,timelimit_screen,999.621999999999,NaN,NaN,,NaN,0,1,0,NaN,NaN,1,NaN,NaN,trial_left,blueBox.png,greenBox.png,blueBox.png,al2_uncon.png,6,5,NaN,NaN,0.85,0.15,1,0,0,0,Stable,Stable,1.832,1.118,0.752,1.79,inexpert
26,1673378805060,10/01/2023 19:26:45,1673378804899,0,10/01/2023 19:26:44,111483,5,task-rbyw,repeat-u7ds#1->-repeat-l3h2#1,26307245,BLIND,7766384,NaN,complete,NaN,63bdb64bc7338fb4af0e3822,computer,Desktop or Laptop,Chromium OS 15183.69.0,Chrome 108.0.0.0,1536x864,1536x864,Start of Day 2,SLS,90,B,NaN,NaN,NaN,Pass,End of Day 1,Pass,NaN,Pass,NaN,Pass,NaN,Start of Day 2,schedule_B,schedule_B,6,3,3,offer,bluebox,response_button_image,1056.70000000298,NaN,NaN,blueBox.png,1,1,0,0,NaN,NaN,NaN,NaN,NaN,trial_left,blueBox.png,greenBox.png,blueBox.png,al2_uncon.png,6,5,NaN,NaN,0.85,0.15,1,0,0,0,Stable,Stable,1.832,1.118,0.752,1.79,inexpert
27,1673378807046,10/01/2023 19:26:47,1673378806891,0,10/01/2023 19:26:46,111483,5,task-rbyw,repeat-u7ds#1->-repeat-l3h2#1,26307245,BLIND,7766384,NaN,complete,NaN,63bdb64bc7338fb4af0e3822,computer,Desktop or Laptop,Chromium OS 15183.69.0,Chrome 108.0.0.0,1536x864,1536x864,Start of Day 2,SLS,90,B,NaN,NaN,NaN,Pass,End of Day 1,Pass,NaN,Pass,NaN,Pass,NaN,Start of Day 2,schedule_B,schedule_B,6,3,5,feedback_r,Zone7,timelimit_screen,1999.262,NaN,NaN,,NaN,0,1,0,NaN,NaN,1,NaN,NaN,trial_left,blueBox.png,greenBox.png,blueBox.png,al2_uncon.png,6,5,NaN,NaN,0.85,0.15,1,0,0,0,Stable,Stable,1.832,1.118,0.752,1.79,inexpert
28,1673378807236,10/01/2023 19:26:47,1673378807041,0,10/01/2023 19:26:47,111483,5,task-rbyw,repeat-u7ds#1->-repeat-l3h2#1,26307245,BLIND,7766384,NaN,complete,NaN,63bdb64bc7338fb4af0e3822,computer,Desktop or Laptop,Chromium OS 15183.69.0,Chrome 108.0.0.0,1536x864,1536x864,Start of Day 2,SLS,90,B,NaN,NaN,NaN,Pass,End of Day 1,Pass,NaN,Pass,NaN,Pass,NaN,Start of Day 2,schedule_B,schedule_B,6,3,6,end,Zone1,timelimit_screen,150.055,NaN,NaN,,NaN,0,1,0,NaN,NaN,1,NaN,NaN,trial_left,blueBox.png,greenBox.png,blueBox.png,al2_uncon.png,6,5,NaN,NaN,0.85,0.15,1,0,0,0,Stable,Stable,1.832,1.118,0.752,1.79,inexpert
29,1673378807845,10/01/2023 19:26:47,1673378807686,0,10/01/2023 19:26:47,111483,5,task-rbyw,repeat-u7ds#1->-repeat-l3h2#1,26307245,BLIND,7766384,NaN,complete,NaN,63bdb64bc7338fb4af0e3822,computer,Desktop or Laptop,Chromium OS 15183.69.0,Chrome 108.0.0.0,1536x864,1536x864,Start of Day 2,SLS,90,B,NaN,NaN,NaN,Pass,End of Day 1,Pass,NaN,Pass,NaN,Pass,NaN,Start of Day 2,schedule_B,schedule_B,7,3,1,Screen 1,Zone1,continue_button,614.5,NaN,NaN,,NaN,0,1,0,NaN,NaN,NaN,NaN,NaN,trial_right,greenBox.png,greenBox.png,blueBox.png,al2_uncon.png,7,6,NaN,NaN,0.15,0.15,0,0,1,0,Stable,Stable,3.294,0.815,1.282,2.664,inexpert
30,1673378808834,10/01/2023 19:26:48,1673378808675,0,10/01/2023 19:26:48,111483,5,task-rbyw,repeat-u7ds#1->-repeat-l3h2#1,26307245,BLIND,7766384,NaN,complete,NaN,63bdb64bc7338fb4af0e3822,computer,Desktop or Laptop,Chromium OS 15183.69.0,Chrome 108.0.0.0,1536x864,1536x864,Start of Day 2,SLS,90,B,NaN,NaN,NaN,Pass,End of Day 1,Pass,NaN,Pass,NaN,Pass,NaN,Start of Day 2,schedule_B,schedule_B,7,3,2,individual,Zone4,timelimit_screen,999.615999999995,NaN,NaN,,NaN,0,1,0,NaN,NaN,1,NaN,NaN,trial_right,greenBox.png,greenBox.png,blueBox.png,al2_uncon.png,7,6,NaN,NaN,0.15,0.15,0,0,1,0,Stable,Stable,3.294,0.815,1.282,2.664,inexpert
31,1673378809947,10/01/2023 19:26:49,1673378809785,0,10/01/2023 19:26:49,111483,5,task-rbyw,repeat-u7ds#1->-repeat-l3h2#1,26307245,BLIND,7766384,NaN,complete,NaN,63bdb64bc7338fb4af0e3822,computer,Desktop or Laptop,Chromium OS 15183.69.0,Chrome 108.0.0.0,1536x864,1536x864,Start of Day 2,SLS,90,B,NaN,NaN,NaN,Pass,End of Day 1,Pass,NaN,Pass,NaN,Pass,NaN,Start of Day 2,schedule_B,schedule_B,7,3,3,offer,Zone2,response_button_image,1089.70000000298,NaN,NaN,greenBox.png,1,1,0,0,NaN,NaN,NaN,NaN,NaN,trial_right,greenBox.png,greenBox.png,blueBox.png,al2_uncon.png,7,6,NaN,NaN,0.15,0.15,0,0,1,0,Stable,Stable,3.294,0.815,1.282,2.664,inexpert
32,1673378811937,10/01/2023 19:26:51,1673378811773,0,10/01/2023 19:26:51,111483,5,task-rbyw,repeat-u7ds#1->-repeat-l3h2#1,26307245,BLIND,7766384,NaN,complete,NaN,63bdb64bc7338fb4af0e3822,computer,Desktop or Laptop,Chromium OS 15183.69.0,Chrome 108.0.0.0,1536x864,1536x864,Start of Day 2,SLS,90,B,NaN,NaN,NaN,Pass,End of Day 1,Pass,NaN,Pass,NaN,Pass,NaN,Start of Day 2,schedule_B,schedule_B,7,3,4,feedback_l,Zone7,timelimit_screen,1999.267,NaN,NaN,,NaN,0,1,0,NaN,NaN,1,NaN,NaN,trial_right,greenBox.png,greenBox.png,blueBox.png,al2_uncon.png,7,6,NaN,NaN,0.15,0.15,0,0,1,0,Stable,Stable,3.294,0.815,1.282,2.664,inexpert
33,1673378812077,10/01/2023 19:26:52,1673378811923,0,10/01/2023 19:26:51,111483,5,task-rbyw,repeat-u7ds#1->-repeat-l3h2#1,26307245,BLIND,7766384,NaN,complete,NaN,63bdb64bc7338fb4af0e3822,computer,Desktop or Laptop,Chromium OS 15183.69.0,Chrome 108.0.0.0,1536x864,1536x864,Start of Day 2,SLS,90,B,NaN,NaN,NaN,Pass,End of Day 1,Pass,NaN,Pass,NaN,Pass,NaN,Start of Day 2,schedule_B,schedule_B,7,3,6,end,Zone1,timelimit_screen,150.057000000001,NaN,NaN,,NaN,0,1,0,NaN,NaN,1,NaN,NaN,trial_right,greenBox.png,greenBox.png,blueBox.png,al2_uncon.png,7,6,NaN,NaN,0.15,0.15,0,0,1,0,Stable,Stable,3.294,0.815,1.282,2.664,inexpert
34,1673378812722,10/01/2023 19:26:52,1673378812573,0,10/01/2023 19:26:52,111483,5,task-rbyw,repeat-u7ds#1->-repeat-l3h2#1,26307245,BLIND,7766384,NaN,complete,NaN,63bdb64bc7338fb4af0e3822,computer,Desktop or Laptop,Chromium OS 15183.69.0,Chrome 108.0.0.0,1536x864,1536x864,Start of Day 2,SLS,90,B,NaN,NaN,NaN,Pass,End of Day 1,Pass,NaN,Pass,NaN,Pass,NaN,Start of Day 2,schedule_B,schedule_B,8,4,1,Screen 1,Zone1,continue_button,616.59999999404,NaN,NaN,,NaN,0,1,0,NaN,NaN,NaN,NaN,NaN,trial_left,greenBox.png,blueBox.png,greenBox.png,al2_uncon.png,8,7,NaN,NaN,0.15,0.15,0,0,1,1,Stable,Stable,3.269,1.37,1.786,2.328,inexpert
35,1673378813710,10/01/2023 19:26:53,1673378813556,0,10/01/2023 19:26:53,111483,5,task-rbyw,repeat-u7ds#1->-repeat-l3h2#1,26307245,BLIND,7766384,NaN,complete,NaN,63bdb64bc7338fb4af0e3822,computer,Desktop or Laptop,Chromium OS 15183.69.0,Chrome 108.0.0.0,1536x864,1536x864,Start of Day 2,SLS,90,B,NaN,NaN,NaN,Pass,End of Day 1,Pass,NaN,Pass,NaN,Pass,NaN,Start of Day 2,schedule_B,schedule_B,8,4,2,individual,Zone4,timelimit_screen,999.633000000002,NaN,NaN,,NaN,0,1,0,NaN,NaN,1,NaN,NaN,trial_left,greenBox.png,blueBox.png,greenBox.png,al2_uncon.png,8,7,NaN,NaN,0.15,0.15,0,0,1,1,Stable,Stable,3.269,1.37,1.786,2.328,inexpert
36,1673378814789,10/01/2023 19:26:54,1673378814643,0,10/01/2023 19:26:54,111483,5,task-rbyw,repeat-u7ds#1->-repeat-l3h2#1,26307245,BLIND,7766384,NaN,complete,NaN,63bdb64bc7338fb4af0e3822,computer,Desktop or Laptop,Chromium OS 15183.69.0,Chrome 108.0.0.0,1536x864,1536x864,Start of Day 2,SLS,90,B,NaN,NaN,NaN,Pass,End of Day 1,Pass,NaN,Pass,NaN,Pass,NaN,Start of Day 2,schedule_B,schedule_B,8,4,3,offer,bluebox,response_button_image,1069.20000000298,NaN,NaN,greenBox.png,1,1,0,0,NaN,NaN,NaN,NaN,NaN,trial_left,greenBox.png,blueBox.png,greenBox.png,al2_uncon.png,8,7,NaN,NaN,0.15,0.15,0,0,1,1,Stable,Stable,3.269,1.37,1.786,2.328,inexpert
37,1673378816802,10/01/2023 19:26:56,1673378816638,0,10/01/2023 19:26:56,111483,5,task-rbyw,repeat-u7ds#1->-repeat-l3h2#1,26307245,BLIND,7766384,NaN,complete,NaN,63bdb64bc7338fb4af0e3822,computer,Desktop or Laptop,Chromium OS 15183.69.0,Chrome 108.0.0.0,1536x864,1536x864,Start of Day 2,SLS,90,B,NaN,NaN,NaN,Pass,End of Day 1,Pass,NaN,Pass,NaN,Pass,NaN,Start of Day 2,schedule_B,schedule_B,8,4,5,feedback_r,Zone7,timelimit_screen,1999.269,NaN,NaN,,NaN,0,1,0,NaN,NaN,1,NaN,NaN,trial_left,greenBox.png,blueBox.png,greenBox.png,al2_uncon.png,8,7,NaN,NaN,0.15,0.15,0,0,1,1,Stable,Stable,3.269,1.37,1.786,2.328,inexpert
38,1673378816944,10/01/2023 19:26:56,1673378816788,0,10/01/2023 19:26:56,111483,5,task-rbyw,repeat-u7ds#1->-repeat-l3h2#1,26307245,BLIND,7766384,NaN,complete,NaN,63bdb64bc7338fb4af0e3822,computer,Desktop or Laptop,Chromium OS 15183.69.0,Chrome 108.0.0.0,1536x864,1536x864,Start of Day 2,SLS,90,B,NaN,NaN,NaN,Pass,End of Day 1,Pass,NaN,Pass,NaN,Pass,NaN,Start of Day 2,schedule_B,schedule_B,8,4,6,end,Zone1,timelimit_screen,150.068999999996,NaN,NaN,,NaN,0,1,0,NaN,NaN,1,NaN,NaN,trial_left,greenBox.png,blueBox.png,greenBox.png,al2_uncon.png,8,7,NaN,NaN,0.15,0.15,0,0,1,1,Stable,Stable,3.269,1.37,1.786,2.328,inexpert
39,1673378817498,10/01/2023 19:26:57,1673378817332,0,10/01/2023 19:26:57,111483,5,task-rbyw,repeat-u7ds#1->-repeat-l3h2#1,26307245,BLIND,7766384,NaN,complete,NaN,63bdb64bc7338fb4af0e3822,computer,Desktop or Laptop,Chromium OS 15183.69.0,Chrome 108.0.0.0,1536x864,1536x864,Start of Day 2,SLS,90,B,NaN,NaN,NaN,Pass,End of Day 1,Pass,NaN,Pass,NaN,Pass,NaN,Start of Day 2,schedule_B,schedule_B,9,4,1,Screen 1,Zone1,continue_button,507.399999991059,NaN,NaN,,NaN,0,1,0,NaN,NaN,NaN,NaN,NaN,trial_right,blueBox.png,blueBox.png,greenBox.png,al2_uncon.png,9,8,NaN,NaN,0.15,0.15,1,0,0,1,Stable,Stable,3.975,0.576,1.256,1.807,inexpert
40,1673378818471,10/01/2023 19:26:58,1673378818321,0,10/01/2023 19:26:58,111483,5,task-rbyw,repeat-u7ds#1->-repeat-l3h2#1,26307245,BLIND,7766384,NaN,complete,NaN,63bdb64bc7338fb4af0e3822,computer,Desktop or Laptop,Chromium OS 15183.69.0,Chrome 108.0.0.0,1536x864,1536x864,Start of Day 2,SLS,90,B,NaN,NaN,NaN,Pass,End of Day 1,Pass,NaN,Pass,NaN,Pass,NaN,Start of Day 2,schedule_B,schedule_B,9,4,2,individual,Zone4,timelimit_screen,999.633999999998,NaN,NaN,,NaN,0,1,0,NaN,NaN,1,NaN,NaN,trial_right,blueBox.png,blueBox.png,greenBox.png,al2_uncon.png,9,8,NaN,NaN,0.15,0.15,1,0,0,1,Stable,Stable,3.975,0.576,1.256,1.807,inexpert
41,1673378819978,10/01/2023 19:26:59,1673378819818,0,10/01/2023 19:26:59,111483,5,task-rbyw,repeat-u7ds#1->-repeat-l3h2#1,26307245,BLIND,7766384,NaN,complete,NaN,63bdb64bc7338fb4af0e3822,computer,Desktop or Laptop,Chromium OS 15183.69.0,Chrome 108.0.0.0,1536x864,1536x864,Start of Day 2,SLS,90,B,NaN,NaN,NaN,Pass,End of Day 1,Pass,NaN,Pass,NaN,Pass,NaN,Start of Day 2,schedule_B,schedule_B,9,4,3,offer,Zone2,response_button_image,1480.39999999106,NaN,NaN,blueBox.png,1,1,0,0,NaN,NaN,NaN,NaN,NaN,trial_right,blueBox.png,blueBox.png,greenBox.png,al2_uncon.png,9,8,NaN,NaN,0.15,0.15,1,0,0,1,Stable,Stable,3.975,0.576,1.256,1.807,inexpert
42,1673378821972,10/01/2023 19:27:01,1673378821803,0,10/01/2023 19:27:01,111483,5,task-rbyw,repeat-u7ds#1->-repeat-l3h2#1,26307245,BLIND,7766384,NaN,complete,NaN,63bdb64bc7338fb4af0e3822,computer,Desktop or Laptop,Chromium OS 15183.69.0,Chrome 108.0.0.0,1536x864,1536x864,Start of Day 2,SLS,90,B,NaN,NaN,NaN,Pass,End of Day 1,Pass,NaN,Pass,NaN,Pass,NaN,Start of Day 2,schedule_B,schedule_B,9,4,4,feedback_l,Zone7,timelimit_screen,1999.295,NaN,NaN,,NaN,0,1,0,NaN,NaN,1,NaN,NaN,trial_right,blueBox.png,blueBox.png,greenBox.png,al2_uncon.png,9,8,NaN,NaN,0.15,0.15,1,0,0,1,Stable,Stable,3.975,0.576,1.256,1.807,inexpert
43,1673378822113,10/01/2023 19:27:02,1673378821953,0,10/01/2023 19:27:01,111483,5,task-rbyw,repeat-u7ds#1->-repeat-l3h2#1,26307245,BLIND,7766384,NaN,complete,NaN,63bdb64bc7338fb4af0e3822,computer,Desktop or Laptop,Chromium OS 15183.69.0,Chrome 108.0.0.0,1536x864,1536x864,Start of Day 2,SLS,90,B,NaN,NaN,NaN,Pass,End of Day 1,Pass,NaN,Pass,NaN,Pass,NaN,Start of Day 2,schedule_B,schedule_B,9,4,6,end,Zone1,timelimit_screen,150.061999999998,NaN,NaN,,NaN,0,1,0,NaN,NaN,1,NaN,NaN,trial_right,blueBox.png,blueBox.png,greenBox.png,al2_uncon.png,9,8,NaN,NaN,0.15,0.15,1,0,0,1,Stable,Stable,3.975,0.576,1.256,1.807,inexpert
44,1673378822736,10/01/2023 19:27:02,1673378822586,0,10/01/2023 19:27:02,111483,5,task-rbyw,repeat-u7ds#1->-repeat-l3h2#1,26307245,BLIND,7766384,NaN,complete,NaN,63bdb64bc7338fb4af0e3822,computer,Desktop or Laptop,Chromium OS 15183.69.0,Chrome 108.0.0.0,1536x864,1536x864,Start of Day 2,SLS,90,B,NaN,NaN,NaN,Pass,End of Day 1,Pass,NaN,Pass,NaN,Pass,NaN,Start of Day 2,schedule_B,schedule_B,10,5,1,Screen 1,Zone1,continue_button,603.90000000596,NaN,NaN,,NaN,0,1,0,NaN,NaN,NaN,NaN,NaN,trial_left,greenBox.png,blueBox.png,greenBox.png,al2_uncon.png,10,9,NaN,NaN,0.15,0.15,0,0,1,1,Stable,Stable,3.798,1.055,1.559,2.042,inexpert
45,1673378823714,10/01/2023 19:27:03,1673378823569,0,10/01/2023 19:27:03,111483,5,task-rbyw,repeat-u7ds#1->-repeat-l3h2#1,26307245,BLIND,7766384,NaN,complete,NaN,63bdb64bc7338fb4af0e3822,computer,Desktop or Laptop,Chromium OS 15183.69.0,Chrome 108.0.0.0,1536x864,1536x864,Start of Day 2,SLS,90,B,NaN,NaN,NaN,Pass,End of Day 1,Pass,NaN,Pass,NaN,Pass,NaN,Start of Day 2,schedule_B,schedule_B,10,5,2,individual,Zone4,timelimit_screen,999.638999999996,NaN,NaN,,NaN,0,1,0,NaN,NaN,1,NaN,NaN,trial_left,greenBox.png,blueBox.png,greenBox.png,al2_uncon.png,10,9,NaN,NaN,0.15,0.15,0,0,1,1,Stable,Stable,3.798,1.055,1.559,2.042,inexpert
46,1673378824651,10/01/2023 19:27:04,1673378824506,0,10/01/2023 19:27:04,111483,5,task-rbyw,repeat-u7ds#1->-repeat-l3h2#1,26307245,BLIND,7766384,NaN,complete,NaN,63bdb64bc7338fb4af0e3822,computer,Desktop or Laptop,Chromium OS 15183.69.0,Chrome 108.0.0.0,1536x864,1536x864,Start of Day 2,SLS,90,B,NaN,NaN,NaN,Pass,End of Day 1,Pass,NaN,Pass,NaN,Pass,NaN,Start of Day 2,schedule_B,schedule_B,10,5,3,offer,bluebox,response_button_image,917.79999999702,NaN,NaN,greenBox.png,1,1,0,0,NaN,NaN,NaN,NaN,NaN,trial_left,greenBox.png,blueBox.png,greenBox.png,al2_uncon.png,10,9,NaN,NaN,0.15,0.15,0,0,1,1,Stable,Stable,3.798,1.055,1.559,2.042,inexpert
47,1673378826673,10/01/2023 19:27:06,1673378826502,0,10/01/2023 19:27:06,111483,5,task-rbyw,repeat-u7ds#1->-repeat-l3h2#1,26307245,BLIND,7766384,NaN,complete,NaN,63bdb64bc7338fb4af0e3822,computer,Desktop or Laptop,Chromium OS 15183.69.0,Chrome 108.0.0.0,1536x864,1536x864,Start of Day 2,SLS,90,B,NaN,NaN,NaN,Pass,End of Day 1,Pass,NaN,Pass,NaN,Pass,NaN,Start of Day 2,schedule_B,schedule_B,10,5,5,feedback_r,Zone7,timelimit_screen,1999.267,NaN,NaN,,NaN,0,1,0,NaN,NaN,1,NaN,NaN,trial_left,greenBox.png,blueBox.png,greenBox.png,al2_uncon.png,10,9,NaN,NaN,0.15,0.15,0,0,1,1,Stable,Stable,3.798,1.055,1.559,2.042,inexpert
48,1673378826801,10/01/2023 19:27:06,1673378826651,0,10/01/2023 19:27:06,111483,5,task-rbyw,repeat-u7ds#1->-repeat-l3h2#1,26307245,BLIND,7766384,NaN,complete,NaN,63bdb64bc7338fb4af0e3822,computer,Desktop or Laptop,Chromium OS 15183.69.0,Chrome 108.0.0.0,1536x864,1536x864,Start of Day 2,SLS,90,B,NaN,NaN,NaN,Pass,End of Day 1,Pass,NaN,Pass,NaN,Pass,NaN,Start of Day 2,schedule_B,schedule_B,10,5,6,end,Zone1,timelimit_screen,150.064000000006,NaN,NaN,,NaN,0,1,0,NaN,NaN,1,NaN,NaN,trial_left,greenBox.png,blueBox.png,greenBox.png,al2_uncon.png,10,9,NaN,NaN,0.15,0.15,0,0,1,1,Stable,Stable,3.798,1.055,1.559,2.042,inexpert
49,1673378827307,10/01/2023 19:27:07,1673378827145,0,10/01/2023 19:27:07,111483,5,task-rbyw,repeat-u7ds#1->-repeat-l3h2#1,26307245,BLIND,7766384,NaN,complete,NaN,63bdb64bc7338fb4af0e3822,computer,Desktop or Laptop,Chromium OS 15183.69.0,Chrome 108.0.0.0,1536x864,1536x864,Start of Day 2,SLS,90,B,NaN,NaN,NaN,Pass,End of Day 1,Pass,NaN,Pass,NaN,Pass,NaN,Start of Day 2,schedule_B,schedule_B,11,5,1,Screen 1,Zone1,continue_button,448.20000000298,NaN,NaN,,NaN,0,1,0,NaN,NaN,NaN,NaN,NaN,trial_right,greenBox.png,greenBox.png,blueBox.png,al2_uncon.png,21,10,NaN,NaN,0.15,0.15,0,0,1,0,Stable,Stable,1.857,0.5,1.294,2.916,inexpert
50,1673378828282,10/01/2023 19:27:08,1673378828134,0,10/01/2023 19:27:08,111483,5,task-rbyw,repeat-u7ds#1->-repeat-l3h2#1,26307245,BLIND,7766384,NaN,complete,NaN,63bdb64bc7338fb4af0e3822,computer,Desktop or Laptop,Chromium OS 15183.69.0,Chrome 108.0.0.0,1536x864,1536x864,Start of Day 2,SLS,90,B,NaN,NaN,NaN,Pass,End of Day 1,Pass,NaN,Pass,NaN,Pass,NaN,Start of Day 2,schedule_B,schedule_B,11,5,2,individual,Zone4,timelimit_screen,999.629000000001,NaN,NaN,,NaN,0,1,0,NaN,NaN,1,NaN,NaN,trial_right,greenBox.png,greenBox.png,blueBox.png,al2_uncon.png,21,10,NaN,NaN,0.15,0.15,0,0,1,0,Stable,Stable,1.857,0.5,1.294,2.916,inexpert
51,1673378829328,10/01/2023 19:27:09,1673378829175,0,10/01/2023 19:27:09,111483,5,task-rbyw,repeat-u7ds#1->-repeat-l3h2#1,26307245,BLIND,7766384,NaN,complete,NaN,63bdb64bc7338fb4af0e3822,computer,Desktop or Laptop,Chromium OS 15183.69.0,Chrome 108.0.0.0,1536x864,1536x864,Start of Day 2,SLS,90,B,NaN,NaN,NaN,Pass,End of Day 1,Pass,NaN,Pass,NaN,Pass,NaN,Start of Day 2,schedule_B,schedule_B,11,5,3,offer,Zone2,response_button_image,1023.39999999106,NaN,NaN,greenBox.png,1,1,0,0,NaN,NaN,NaN,NaN,NaN,trial_right,greenBox.png,greenBox.png,blueBox.png,al2_uncon.png,21,10,NaN,NaN,0.15,0.15,0,0,1,0,Stable,Stable,1.857,0.5,1.294,2.916,inexpert
52,1673378831669,10/01/2023 19:27:11,1673378831166,0,10/01/2023 19:27:11,111483,5,task-rbyw,repeat-u7ds#1->-repeat-l3h2#1,26307245,BLIND,7766384,NaN,complete,NaN,63bdb64bc7338fb4af0e3822,computer,Desktop or Laptop,Chromium OS 15183.69.0,Chrome 108.0.0.0,1536x864,1536x864,Start of Day 2,SLS,90,B,NaN,NaN,NaN,Pass,End of Day 1,Pass,NaN,Pass,NaN,Pass,NaN,Start of Day 2,schedule_B,schedule_B,11,5,4,feedback_l,Zone7,timelimit_screen,1999.267,NaN,NaN,,NaN,0,1,0,NaN,NaN,1,NaN,NaN,trial_right,greenBox.png,greenBox.png,blueBox.png,al2_uncon.png,21,10,NaN,NaN,0.15,0.15,0,0,1,0,Stable,Stable,1.857,0.5,1.294,2.916,inexpert
53,1673378831792,10/01/2023 19:27:11,1673378831316,0,10/01/2023 19:27:11,111483,5,task-rbyw,repeat-u7ds#1->-repeat-l3h2#1,26307245,BLIND,7766384,NaN,complete,NaN,63bdb64bc7338fb4af0e3822,computer,Desktop or Laptop,Chromium OS 15183.69.0,Chrome 108.0.0.0,1536x864,1536x864,Start of Day 2,SLS,90,B,NaN,NaN,NaN,Pass,End of Day 1,Pass,NaN,Pass,NaN,Pass,NaN,Start of Day 2,schedule_B,schedule_B,11,5,6,end,Zone1,timelimit_screen,150.063000000002,NaN,NaN,,NaN,0,1,0,NaN,NaN,1,NaN,NaN,trial_right,greenBox.png,greenBox.png,blueBox.png,al2_uncon.png,21,10,NaN,NaN,0.15,0.15,0,0,1,0,Stable,Stable,1.857,0.5,1.294,2.916,inexpert
54,1673378831881,10/01/2023 19:27:11,1673378831643,0,10/01/2023 19:27:11,111483,5,task-rbyw,repeat-u7ds#1->-repeat-l3h2#1,26307245,BLIND,7766384,NaN,complete,NaN,63bdb64bc7338fb4af0e3822,computer,Desktop or Laptop,Chromium OS 15183.69.0,Chrome 108.0.0.0,1536x864,1536x864,Start of Day 2,SLS,90,B,NaN,NaN,NaN,Pass,End of Day 1,Pass,NaN,Pass,NaN,Pass,NaN,Start of Day 2,schedule_B,schedule_B,12,6,1,Screen 1,Zone1,continue_button,293.40000000596,NaN,NaN,,NaN,0,1,0,NaN,NaN,NaN,NaN,NaN,trial_left,blueBox.png,greenBox.png,blueBox.png,al2_uncon.png,22,11,NaN,NaN,0.85,0.15,1,0,0,0,Stable,Stable,1.126,1.849,1.483,1.689,inexpert
55,1673378832822,10/01/2023 19:27:12,1673378832633,0,10/01/2023 19:27:12,111483,5,task-rbyw,repeat-u7ds#1->-repeat-l3h2#1,26307245,BLIND,7766384,NaN,complete,NaN,63bdb64bc7338fb4af0e3822,computer,Desktop or Laptop,Chromium OS 15183.69.0,Chrome 108.0.0.0,1536x864,1536x864,Start of Day 2,SLS,90,B,NaN,NaN,NaN,Pass,End of Day 1,Pass,NaN,Pass,NaN,Pass,NaN,Start of Day 2,schedule_B,schedule_B,12,6,2,individual,Zone4,timelimit_screen,999.618999999999,NaN,NaN,,NaN,0,1,0,NaN,NaN,1,NaN,NaN,trial_left,blueBox.png,greenBox.png,blueBox.png,al2_uncon.png,22,11,NaN,NaN,0.85,0.15,1,0,0,0,Stable,Stable,1.126,1.849,1.483,1.689,inexpert
56,1673378834003,10/01/2023 19:27:14,1673378833851,0,10/01/2023 19:27:13,111483,5,task-rbyw,repeat-u7ds#1->-repeat-l3h2#1,26307245,BLIND,7766384,NaN,complete,NaN,63bdb64bc7338fb4af0e3822,computer,Desktop or Laptop,Chromium OS 15183.69.0,Chrome 108.0.0.0,1536x864,1536x864,Start of Day 2,SLS,90,B,NaN,NaN,NaN,Pass,End of Day 1,Pass,NaN,Pass,NaN,Pass,NaN,Start of Day 2,schedule_B,schedule_B,12,6,3,offer,bluebox,response_button_image,1201.59999999404,NaN,NaN,blueBox.png,1,1,0,0,NaN,NaN,NaN,NaN,NaN,trial_left,blueBox.png,greenBox.png,blueBox.png,al2_uncon.png,22,11,NaN,NaN,0.85,0.15,1,0,0,0,Stable,Stable,1.126,1.849,1.483,1.689,inexpert
57,1673378836004,10/01/2023 19:27:16,1673378835848,0,10/01/2023 19:27:15,111483,5,task-rbyw,repeat-u7ds#1->-repeat-l3h2#1,26307245,BLIND,7766384,NaN,complete,NaN,63bdb64bc7338fb4af0e3822,computer,Desktop or Laptop,Chromium OS 15183.69.0,Chrome 108.0.0.0,1536x864,1536x864,Start of Day 2,SLS,90,B,NaN,NaN,NaN,Pass,End of Day 1,Pass,NaN,Pass,NaN,Pass,NaN,Start of Day 2,schedule_B,schedule_B,12,6,5,feedback_r,Zone7,timelimit_screen,1999.245,NaN,NaN,,NaN,0,1,0,NaN,NaN,1,NaN,NaN,trial_left,blueBox.png,greenBox.png,blueBox.png,al2_uncon.png,22,11,NaN,NaN,0.85,0.15,1,0,0,0,Stable,Stable,1.126,1.849,1.483,1.689,inexpert
58,1673378836158,10/01/2023 19:27:16,1673378835998,0,10/01/2023 19:27:15,111483,5,task-rbyw,repeat-u7ds#1->-repeat-l3h2#1,26307245,BLIND,7766384,NaN,complete,NaN,63bdb64bc7338fb4af0e3822,computer,Desktop or Laptop,Chromium OS 15183.69.0,Chrome 108.0.0.0,1536x864,1536x864,Start of Day 2,SLS,90,B,NaN,NaN,NaN,Pass,End of Day 1,Pass,NaN,Pass,NaN,Pass,NaN,Start of Day 2,schedule_B,schedule_B,12,6,6,end,Zone1,timelimit_screen,150.057999999997,NaN,NaN,,NaN,0,1,0,NaN,NaN,1,NaN,NaN,trial_left,blueBox.png,greenBox.png,blueBox.png,al2_uncon.png,22,11,NaN,NaN,0.85,0.15,1,0,0,0,Stable,Stable,1.126,1.849,1.483,1.689,inexpert
59,1673378837146,10/01/2023 19:27:17,1673378836998,0,10/01/2023 19:27:16,111483,5,task-rbyw,repeat-u7ds#1->-repeat-l3h2#1,26307245,BLIND,7766384,NaN,complete,NaN,63bdb64bc7338fb4af0e3822,computer,Desktop or Laptop,Chromium OS 15183.69.0,Chrome 108.0.0.0,1536x864,1536x864,Start of Day 2,SLS,90,B,NaN,NaN,NaN,Pass,End of Day 1,Pass,NaN,Pass,NaN,Pass,NaN,Start of Day 2,schedule_B,schedule_B,13,7,1,Screen 1,Zone1,continue_button,967.899999991059,NaN,NaN,,NaN,0,1,0,NaN,NaN,NaN,NaN,NaN,trial_left,blueBox.png,greenBox.png,blueBox.png,al2_uncon.png,23,12,NaN,NaN,0.85,0.15,1,0,0,0,Stable,Stable,2.361,0.992,0.5,1.975,inexpert
60,1673378838140,10/01/2023 19:27:18,1673378837981,0,10/01/2023 19:27:17,111483,5,task-rbyw,repeat-u7ds#1->-repeat-l3h2#1,26307245,BLIND,7766384,NaN,complete,NaN,63bdb64bc7338fb4af0e3822,computer,Desktop or Laptop,Chromium OS 15183.69.0,Chrome 108.0.0.0,1536x864,1536x864,Start of Day 2,SLS,90,B,NaN,NaN,NaN,Pass,End of Day 1,Pass,NaN,Pass,NaN,Pass,NaN,Start of Day 2,schedule_B,schedule_B,13,7,2,individual,Zone4,timelimit_screen,999.647000000004,NaN,NaN,,NaN,0,1,0,NaN,NaN,1,NaN,NaN,trial_left,blueBox.png,greenBox.png,blueBox.png,al2_uncon.png,23,12,NaN,NaN,0.85,0.15,1,0,0,0,Stable,Stable,2.361,0.992,0.5,1.975,inexpert
61,1673378839278,10/01/2023 19:27:19,1673378839116,0,10/01/2023 19:27:19,111483,5,task-rbyw,repeat-u7ds#1->-repeat-l3h2#1,26307245,BLIND,7766384,NaN,complete,NaN,63bdb64bc7338fb4af0e3822,computer,Desktop or Laptop,Chromium OS 15183.69.0,Chrome 108.0.0.0,1536x864,1536x864,Start of Day 2,SLS,90,B,NaN,NaN,NaN,Pass,End of Day 1,Pass,NaN,Pass,NaN,Pass,NaN,Start of Day 2,schedule_B,schedule_B,13,7,3,offer,bluebox,response_button_image,1120.70000000298,NaN,NaN,blueBox.png,1,1,0,0,NaN,NaN,NaN,NaN,NaN,trial_left,blueBox.png,greenBox.png,blueBox.png,al2_uncon.png,23,12,NaN,NaN,0.85,0.15,1,0,0,0,Stable,Stable,2.361,0.992,0.5,1.975,inexpert
62,1673378841511,10/01/2023 19:27:21,1673378841113,0,10/01/2023 19:27:21,111483,5,task-rbyw,repeat-u7ds#1->-repeat-l3h2#1,26307245,BLIND,7766384,NaN,complete,NaN,63bdb64bc7338fb4af0e3822,computer,Desktop or Laptop,Chromium OS 15183.69.0,Chrome 108.0.0.0,1536x864,1536x864,Start of Day 2,SLS,90,B,NaN,NaN,NaN,Pass,End of Day 1,Pass,NaN,Pass,NaN,Pass,NaN,Start of Day 2,schedule_B,schedule_B,13,7,5,feedback_r,Zone7,timelimit_screen,1999.28099999999,NaN,NaN,,NaN,0,1,0,NaN,NaN,1,NaN,NaN,trial_left,blueBox.png,greenBox.png,blueBox.png,al2_uncon.png,23,12,NaN,NaN,0.85,0.15,1,0,0,0,Stable,Stable,2.361,0.992,0.5,1.975,inexpert
63,1673378841622,10/01/2023 19:27:21,1673378841264,0,10/01/2023 19:27:21,111483,5,task-rbyw,repeat-u7ds#1->-repeat-l3h2#1,26307245,BLIND,7766384,NaN,complete,NaN,63bdb64bc7338fb4af0e3822,computer,Desktop or Laptop,Chromium OS 15183.69.0,Chrome 108.0.0.0,1536x864,1536x864,Start of Day 2,SLS,90,B,NaN,NaN,NaN,Pass,End of Day 1,Pass,NaN,Pass,NaN,Pass,NaN,Start of Day 2,schedule_B,schedule_B,13,7,6,end,Zone1,timelimit_screen,150.064000000013,NaN,NaN,,NaN,0,1,0,NaN,NaN,1,NaN,NaN,trial_left,blueBox.png,greenBox.png,blueBox.png,al2_uncon.png,23,12,NaN,NaN,0.85,0.15,1,0,0,0,Stable,Stable,2.361,0.992,0.5,1.975,inexpert
64,1673378841922,10/01/2023 19:27:21,1673378841775,0,10/01/2023 19:27:21,111483,5,task-rbyw,repeat-u7ds#1->-repeat-l3h2#1,26307245,BLIND,7766384,NaN,complete,NaN,63bdb64bc7338fb4af0e3822,computer,Desktop or Laptop,Chromium OS 15183.69.0,Chrome 108.0.0.0,1536x864,1536x864,Start of Day 2,SLS,90,B,NaN,NaN,NaN,Pass,End of Day 1,Pass,NaN,Pass,NaN,Pass,NaN,Start of Day 2,schedule_B,schedule_B,14,6,1,Screen 1,Zone1,continue_button,485.90000000596,NaN,NaN,,NaN,0,1,0,NaN,NaN,NaN,NaN,NaN,trial_right,blueBox.png,blueBox.png,greenBox.png,al2_uncon.png,24,13,NaN,NaN,0.85,0.15,1,0,0,1,Stable,Stable,1.05,1.95,1.319,1.487,inexpert
65,1673378842911,10/01/2023 19:27:22,1673378842763,0,10/01/2023 19:27:22,111483,5,task-rbyw,repeat-u7ds#1->-repeat-l3h2#1,26307245,BLIND,7766384,NaN,complete,NaN,63bdb64bc7338fb4af0e3822,computer,Desktop or Laptop,Chromium OS 15183.69.0,Chrome 108.0.0.0,1536x864,1536x864,Start of Day 2,SLS,90,B,NaN,NaN,NaN,Pass,End of Day 1,Pass,NaN,Pass,NaN,Pass,NaN,Start of Day 2,schedule_B,schedule_B,14,6,2,individual,Zone4,timelimit_screen,999.623999999996,NaN,NaN,,NaN,0,1,0,NaN,NaN,1,NaN,NaN,trial_right,blueBox.png,blueBox.png,greenBox.png,al2_uncon.png,24,13,NaN,NaN,0.85,0.15,1,0,0,1,Stable,Stable,1.05,1.95,1.319,1.487,inexpert
66,1673378843882,10/01/2023 19:27:23,1673378843725,0,10/01/2023 19:27:23,111483,5,task-rbyw,repeat-u7ds#1->-repeat-l3h2#1,26307245,BLIND,7766384,NaN,complete,NaN,63bdb64bc7338fb4af0e3822,computer,Desktop or Laptop,Chromium OS 15183.69.0,Chrome 108.0.0.0,1536x864,1536x864,Start of Day 2,SLS,90,B,NaN,NaN,NaN,Pass,End of Day 1,Pass,NaN,Pass,NaN,Pass,NaN,Start of Day 2,schedule_B,schedule_B,14,6,3,offer,Zone2,response_button_image,937.29999999702,NaN,NaN,blueBox.png,1,1,0,0,NaN,NaN,NaN,NaN,NaN,trial_right,blueBox.png,blueBox.png,greenBox.png,al2_uncon.png,24,13,NaN,NaN,0.85,0.15,1,0,0,1,Stable,Stable,1.05,1.95,1.319,1.487,inexpert
67,1673378845875,10/01/2023 19:27:25,1673378845711,0,10/01/2023 19:27:25,111483,5,task-rbyw,repeat-u7ds#1->-repeat-l3h2#1,26307245,BLIND,7766384,NaN,complete,NaN,63bdb64bc7338fb4af0e3822,computer,Desktop or Laptop,Chromium OS 15183.69.0,Chrome 108.0.0.0,1536x864,1536x864,Start of Day 2,SLS,90,B,NaN,NaN,NaN,Pass,End of Day 1,Pass,NaN,Pass,NaN,Pass,NaN,Start of Day 2,schedule_B,schedule_B,14,6,4,feedback_l,Zone7,timelimit_screen,1999.26299999999,NaN,NaN,,NaN,0,1,0,NaN,NaN,1,NaN,NaN,trial_right,blueBox.png,blueBox.png,greenBox.png,al2_uncon.png,24,13,NaN,NaN,0.85,0.15,1,0,0,1,Stable,Stable,1.05,1.95,1.319,1.487,inexpert
68,1673378846041,10/01/2023 19:27:26,1673378845862,0,10/01/2023 19:27:25,111483,5,task-rbyw,repeat-u7ds#1->-repeat-l3h2#1,26307245,BLIND,7766384,NaN,complete,NaN,63bdb64bc7338fb4af0e3822,computer,Desktop or Laptop,Chromium OS 15183.69.0,Chrome 108.0.0.0,1536x864,1536x864,Start of Day 2,SLS,90,B,NaN,NaN,NaN,Pass,End of Day 1,Pass,NaN,Pass,NaN,Pass,NaN,Start of Day 2,schedule_B,schedule_B,14,6,6,end,Zone1,timelimit_screen,150.054000000004,NaN,NaN,,NaN,0,1,0,NaN,NaN,1,NaN,NaN,trial_right,blueBox.png,blueBox.png,greenBox.png,al2_uncon.png,24,13,NaN,NaN,0.85,0.15,1,0,0,1,Stable,Stable,1.05,1.95,1.319,1.487,inexpert
69,1673378847143,10/01/2023 19:27:27,1673378846991,0,10/01/2023 19:27:26,111483,5,task-rbyw,repeat-u7ds#1->-repeat-l3h2#1,26307245,BLIND,7766384,NaN,complete,NaN,63bdb64bc7338fb4af0e3822,computer,Desktop or Laptop,Chromium OS 15183.69.0,Chrome 108.0.0.0,1536x864,1536x864,Start of Day 2,SLS,90,B,NaN,NaN,NaN,Pass,End of Day 1,Pass,NaN,Pass,NaN,Pass,NaN,Start of Day 2,schedule_B,schedule_B,15,7,1,Screen 1,Zone1,continue_button,1100.59999999404,NaN,NaN,,NaN,0,1,0,NaN,NaN,NaN,NaN,NaN,trial_right,blueBox.png,blueBox.png,greenBox.png,al2_uncon.png,25,14,NaN,NaN,0.85,0.15,1,0,0,1,Stable,Stable,3.395,0.84,0.803,1.252,inexpert
70,1673378848138,10/01/2023 19:27:28,1673378847978,0,10/01/2023 19:27:27,111483,5,task-rbyw,repeat-u7ds#1->-repeat-l3h2#1,26307245,BLIND,7766384,NaN,complete,NaN,63bdb64bc7338fb4af0e3822,computer,Desktop or Laptop,Chromium OS 15183.69.0,Chrome 108.0.0.0,1536x864,1536x864,Start of Day 2,SLS,90,B,NaN,NaN,NaN,Pass,End of Day 1,Pass,NaN,Pass,NaN,Pass,NaN,Start of Day 2,schedule_B,schedule_B,15,7,2,individual,Zone4,timelimit_screen,999.615999999995,NaN,NaN,,NaN,0,1,0,NaN,NaN,1,NaN,NaN,trial_right,blueBox.png,blueBox.png,greenBox.png,al2_uncon.png,25,14,NaN,NaN,0.85,0.15,1,0,0,1,Stable,Stable,3.395,0.84,0.803,1.252,inexpert
71,1673378849344,10/01/2023 19:27:29,1673378849181,0,10/01/2023 19:27:29,111483,5,task-rbyw,repeat-u7ds#1->-repeat-l3h2#1,26307245,BLIND,7766384,NaN,complete,NaN,63bdb64bc7338fb4af0e3822,computer,Desktop or Laptop,Chromium OS 15183.69.0,Chrome 108.0.0.0,1536x864,1536x864,Start of Day 2,SLS,90,B,NaN,NaN,NaN,Pass,End of Day 1,Pass,NaN,Pass,NaN,Pass,NaN,Start of Day 2,schedule_B,schedule_B,15,7,3,offer,Zone2,response_button_image,1183.59999999404,NaN,NaN,blueBox.png,1,1,0,0,NaN,NaN,NaN,NaN,NaN,trial_right,blueBox.png,blueBox.png,greenBox.png,al2_uncon.png,25,14,NaN,NaN,0.85,0.15,1,0,0,1,Stable,Stable,3.395,0.84,0.803,1.252,inexpert
72,1673378851344,10/01/2023 19:27:31,1673378851176,0,10/01/2023 19:27:31,111483,5,task-rbyw,repeat-u7ds#1->-repeat-l3h2#1,26307245,BLIND,7766384,NaN,complete,NaN,63bdb64bc7338fb4af0e3822,computer,Desktop or Laptop,Chromium OS 15183.69.0,Chrome 108.0.0.0,1536x864,1536x864,Start of Day 2,SLS,90,B,NaN,NaN,NaN,Pass,End of Day 1,Pass,NaN,Pass,NaN,Pass,NaN,Start of Day 2,schedule_B,schedule_B,15,7,4,feedback_l,Zone7,timelimit_screen,1999.285,NaN,NaN,,NaN,0,1,0,NaN,NaN,1,NaN,NaN,trial_right,blueBox.png,blueBox.png,greenBox.png,al2_uncon.png,25,14,NaN,NaN,0.85,0.15,1,0,0,1,Stable,Stable,3.395,0.84,0.803,1.252,inexpert
73,1673378851481,10/01/2023 19:27:31,1673378851326,0,10/01/2023 19:27:31,111483,5,task-rbyw,repeat-u7ds#1->-repeat-l3h2#1,26307245,BLIND,7766384,NaN,complete,NaN,63bdb64bc7338fb4af0e3822,computer,Desktop or Laptop,Chromium OS 15183.69.0,Chrome 108.0.0.0,1536x864,1536x864,Start of Day 2,SLS,90,B,NaN,NaN,NaN,Pass,End of Day 1,Pass,NaN,Pass,NaN,Pass,NaN,Start of Day 2,schedule_B,schedule_B,15,7,6,end,Zone1,timelimit_screen,150.054000000004,NaN,NaN,,NaN,0,1,0,NaN,NaN,1,NaN,NaN,trial_right,blueBox.png,blueBox.png,greenBox.png,al2_uncon.png,25,14,NaN,NaN,0.85,0.15,1,0,0,1,Stable,Stable,3.395,0.84,0.803,1.252,inexpert
74,1673378852002,10/01/2023 19:27:32,1673378851850,0,10/01/2023 19:27:31,111483,5,task-rbyw,repeat-u7ds#1->-repeat-l3h2#1,26307245,BLIND,7766384,NaN,complete,NaN,63bdb64bc7338fb4af0e3822,computer,Desktop or Laptop,Chromium OS 15183.69.0,Chrome 108.0.0.0,1536x864,1536x864,Start of Day 2,SLS,90,B,NaN,NaN,NaN,Pass,End of Day 1,Pass,NaN,Pass,NaN,Pass,NaN,Start of Day 2,schedule_B,schedule_B,16,8,1,Screen 1,Zone1,continue_button,496.5,NaN,NaN,,NaN,0,1,0,NaN,NaN,NaN,NaN,NaN,trial_left,blueBox.png,blueBox.png,greenBox.png,al2_uncon.png,26,15,NaN,NaN,0.85,0.15,1,1,1,1,Stable,Stable,2.689,1.067,1.697,2.731,inexpert
75,1673378853007,10/01/2023 19:27:33,1673378852843,0,10/01/2023 19:27:32,111483,5,task-rbyw,repeat-u7ds#1->-repeat-l3h2#1,26307245,BLIND,7766384,NaN,complete,NaN,63bdb64bc7338fb4af0e3822,computer,Desktop or Laptop,Chromium OS 15183.69.0,Chrome 108.0.0.0,1536x864,1536x864,Start of Day 2,SLS,90,B,NaN,NaN,NaN,Pass,End of Day 1,Pass,NaN,Pass,NaN,Pass,NaN,Start of Day 2,schedule_B,schedule_B,16,8,2,individual,Zone4,timelimit_screen,999.627999999997,NaN,NaN,,NaN,0,1,0,NaN,NaN,1,NaN,NaN,trial_left,blueBox.png,blueBox.png,greenBox.png,al2_uncon.png,26,15,NaN,NaN,0.85,0.15,1,1,1,1,Stable,Stable,2.689,1.067,1.697,2.731,inexpert
76,1673378854066,10/01/2023 19:27:34,1673378853899,0,10/01/2023 19:27:33,111483,5,task-rbyw,repeat-u7ds#1->-repeat-l3h2#1,26307245,BLIND,7766384,NaN,complete,NaN,63bdb64bc7338fb4af0e3822,computer,Desktop or Laptop,Chromium OS 15183.69.0,Chrome 108.0.0.0,1536x864,1536x864,Start of Day 2,SLS,90,B,NaN,NaN,NaN,Pass,End of Day 1,Pass,NaN,Pass,NaN,Pass,NaN,Start of Day 2,schedule_B,schedule_B,16,8,3,offer,bluebox,response_button_image,1036.60000000894,NaN,NaN,greenBox.png,1,0,1,0,NaN,NaN,NaN,NaN,NaN,trial_left,blueBox.png,blueBox.png,greenBox.png,al2_uncon.png,26,15,NaN,NaN,0.85,0.15,1,1,1,1,Stable,Stable,2.689,1.067,1.697,2.731,inexpert
77,1673378856047,10/01/2023 19:27:36,1673378855891,0,10/01/2023 19:27:35,111483,5,task-rbyw,repeat-u7ds#1->-repeat-l3h2#1,26307245,BLIND,7766384,NaN,complete,NaN,63bdb64bc7338fb4af0e3822,computer,Desktop or Laptop,Chromium OS 15183.69.0,Chrome 108.0.0.0,1536x864,1536x864,Start of Day 2,SLS,90,B,NaN,NaN,NaN,Pass,End of Day 1,Pass,NaN,Pass,NaN,Pass,NaN,Start of Day 2,schedule_B,schedule_B,16,8,5,feedback_r,Zone7,timelimit_screen,1999.262,NaN,NaN,,NaN,0,1,0,NaN,NaN,1,NaN,NaN,trial_left,blueBox.png,blueBox.png,greenBox.png,al2_uncon.png,26,15,NaN,NaN,0.85,0.15,1,1,1,1,Stable,Stable,2.689,1.067,1.697,2.731,inexpert
78,1673378856191,10/01/2023 19:27:36,1673378856042,0,10/01/2023 19:27:36,111483,5,task-rbyw,repeat-u7ds#1->-repeat-l3h2#1,26307245,BLIND,7766384,NaN,complete,NaN,63bdb64bc7338fb4af0e3822,computer,Desktop or Laptop,Chromium OS 15183.69.0,Chrome 108.0.0.0,1536x864,1536x864,Start of Day 2,SLS,90,B,NaN,NaN,NaN,Pass,End of Day 1,Pass,NaN,Pass,NaN,Pass,NaN,Start of Day 2,schedule_B,schedule_B,16,8,6,end,Zone1,timelimit_screen,150.063999999998,NaN,NaN,,NaN,0,1,0,NaN,NaN,1,NaN,NaN,trial_left,blueBox.png,blueBox.png,greenBox.png,al2_uncon.png,26,15,NaN,NaN,0.85,0.15,1,1,1,1,Stable,Stable,2.689,1.067,1.697,2.731,inexpert
79,1673378856771,10/01/2023 19:27:36,1673378856547,0,10/01/2023 19:27:36,111483,5,task-rbyw,repeat-u7ds#1->-repeat-l3h2#1,26307245,BLIND,7766384,NaN,complete,NaN,63bdb64bc7338fb4af0e3822,computer,Desktop or Laptop,Chromium OS 15183.69.0,Chrome 108.0.0.0,1536x864,1536x864,Start of Day 2,SLS,90,B,NaN,NaN,NaN,Pass,End of Day 1,Pass,NaN,Pass,NaN,Pass,NaN,Start of Day 2,schedule_B,schedule_B,17,9,1,Screen 1,Zone1,continue_button,477.100000008941,NaN,NaN,,NaN,0,1,0,NaN,NaN,NaN,NaN,NaN,trial_left,greenBox.png,greenBox.png,blueBox.png,al2_uncon.png,27,16,NaN,NaN,0.15,0.15,0,1,0,0,Stable,Stable,1.378,0.689,0.878,2.076,inexpert
80,1673378857710,10/01/2023 19:27:37,1673378857541,0,10/01/2023 19:27:37,111483,5,task-rbyw,repeat-u7ds#1->-repeat-l3h2#1,26307245,BLIND,7766384,NaN,complete,NaN,63bdb64bc7338fb4af0e3822,computer,Desktop or Laptop,Chromium OS 15183.69.0,Chrome 108.0.0.0,1536x864,1536x864,Start of Day 2,SLS,90,B,NaN,NaN,NaN,Pass,End of Day 1,Pass,NaN,Pass,NaN,Pass,NaN,Start of Day 2,schedule_B,schedule_B,17,9,2,individual,Zone4,timelimit_screen,999.623000000007,NaN,NaN,,NaN,0,1,0,NaN,NaN,1,NaN,NaN,trial_left,greenBox.png,greenBox.png,blueBox.png,al2_uncon.png,27,16,NaN,NaN,0.15,0.15,0,1,0,0,Stable,Stable,1.378,0.689,0.878,2.076,inexpert
81,1673378858676,10/01/2023 19:27:38,1673378858527,0,10/01/2023 19:27:38,111483,5,task-rbyw,repeat-u7ds#1->-repeat-l3h2#1,26307245,BLIND,7766384,NaN,complete,NaN,63bdb64bc7338fb4af0e3822,computer,Desktop or Laptop,Chromium OS 15183.69.0,Chrome 108.0.0.0,1536x864,1536x864,Start of Day 2,SLS,90,B,NaN,NaN,NaN,Pass,End of Day 1,Pass,NaN,Pass,NaN,Pass,NaN,Start of Day 2,schedule_B,schedule_B,17,9,3,offer,bluebox,response_button_image,968.79999999702,NaN,NaN,blueBox.png,1,0,1,0,NaN,NaN,NaN,NaN,NaN,trial_left,greenBox.png,greenBox.png,blueBox.png,al2_uncon.png,27,16,NaN,NaN,0.15,0.15,0,1,0,0,Stable,Stable,1.378,0.689,0.878,2.076,inexpert
82,1673378860677,10/01/2023 19:27:40,1673378860523,0,10/01/2023 19:27:40,111483,5,task-rbyw,repeat-u7ds#1->-repeat-l3h2#1,26307245,BLIND,7766384,NaN,complete,NaN,63bdb64bc7338fb4af0e3822,computer,Desktop or Laptop,Chromium OS 15183.69.0,Chrome 108.0.0.0,1536x864,1536x864,Start of Day 2,SLS,90,B,NaN,NaN,NaN,Pass,End of Day 1,Pass,NaN,Pass,NaN,Pass,NaN,Start of Day 2,schedule_B,schedule_B,17,9,5,feedback_r,Zone7,timelimit_screen,1999.26199999999,NaN,NaN,,NaN,0,1,0,NaN,NaN,1,NaN,NaN,trial_left,greenBox.png,greenBox.png,blueBox.png,al2_uncon.png,27,16,NaN,NaN,0.15,0.15,0,1,0,0,Stable,Stable,1.378,0.689,0.878,2.076,inexpert
83,1673378860868,10/01/2023 19:27:40,1673378860673,0,10/01/2023 19:27:40,111483,5,task-rbyw,repeat-u7ds#1->-repeat-l3h2#1,26307245,BLIND,7766384,NaN,complete,NaN,63bdb64bc7338fb4af0e3822,computer,Desktop or Laptop,Chromium OS 15183.69.0,Chrome 108.0.0.0,1536x864,1536x864,Start of Day 2,SLS,90,B,NaN,NaN,NaN,Pass,End of Day 1,Pass,NaN,Pass,NaN,Pass,NaN,Start of Day 2,schedule_B,schedule_B,17,9,6,end,Zone1,timelimit_screen,150.060000000012,NaN,NaN,,NaN,0,1,0,NaN,NaN,1,NaN,NaN,trial_left,greenBox.png,greenBox.png,blueBox.png,al2_uncon.png,27,16,NaN,NaN,0.15,0.15,0,1,0,0,Stable,Stable,1.378,0.689,0.878,2.076,inexpert
84,1673378862705,10/01/2023 19:27:42,1673378862451,0,10/01/2023 19:27:42,111483,5,task-rbyw,repeat-u7ds#1->-repeat-l3h2#1,26307245,BLIND,7766384,NaN,complete,NaN,63bdb64bc7338fb4af0e3822,computer,Desktop or Laptop,Chromium OS 15183.69.0,Chrome 108.0.0.0,1536x864,1536x864,Start of Day 2,SLS,90,B,NaN,NaN,NaN,Pass,End of Day 1,Pass,NaN,Pass,NaN,Pass,NaN,Start of Day 2,schedule_B,schedule_B,18,8,1,Screen 1,Zone1,continue_button,1754,NaN,NaN,,NaN,0,1,0,NaN,NaN,NaN,NaN,NaN,trial_right,greenBox.png,blueBox.png,greenBox.png,al2_uncon.png,28,17,NaN,NaN,0.15,0.15,0,1,0,1,Stable,Stable,2.714,0.739,1.975,1.134,inexpert
85,1673378863742,10/01/2023 19:27:43,1673378863439,0,10/01/2023 19:27:43,111483,5,task-rbyw,repeat-u7ds#1->-repeat-l3h2#1,26307245,BLIND,7766384,NaN,complete,NaN,63bdb64bc7338fb4af0e3822,computer,Desktop or Laptop,Chromium OS 15183.69.0,Chrome 108.0.0.0,1536x864,1536x864,Start of Day 2,SLS,90,B,NaN,NaN,NaN,Pass,End of Day 1,Pass,NaN,Pass,NaN,Pass,NaN,Start of Day 2,schedule_B,schedule_B,18,8,2,individual,Zone4,timelimit_screen,999.615000000005,NaN,NaN,,NaN,0,1,0,NaN,NaN,1,NaN,NaN,trial_right,greenBox.png,blueBox.png,greenBox.png,al2_uncon.png,28,17,NaN,NaN,0.15,0.15,0,1,0,1,Stable,Stable,2.714,0.739,1.975,1.134,inexpert
86,1673378864603,10/01/2023 19:27:44,1673378864451,0,10/01/2023 19:27:44,111483,5,task-rbyw,repeat-u7ds#1->-repeat-l3h2#1,26307245,BLIND,7766384,NaN,complete,NaN,63bdb64bc7338fb4af0e3822,computer,Desktop or Laptop,Chromium OS 15183.69.0,Chrome 108.0.0.0,1536x864,1536x864,Start of Day 2,SLS,90,B,NaN,NaN,NaN,Pass,End of Day 1,Pass,NaN,Pass,NaN,Pass,NaN,Start of Day 2,schedule_B,schedule_B,18,8,3,offer,Zone3,response_button_image,986.90000000596,NaN,NaN,greenBox.png,1,1,0,0,NaN,NaN,NaN,NaN,NaN,trial_right,greenBox.png,blueBox.png,greenBox.png,al2_uncon.png,28,17,NaN,NaN,0.15,0.15,0,1,0,1,Stable,Stable,2.714,0.739,1.975,1.134,inexpert
87,1673378866610,10/01/2023 19:27:46,1673378866439,0,10/01/2023 19:27:46,111483,5,task-rbyw,repeat-u7ds#1->-repeat-l3h2#1,26307245,BLIND,7766384,NaN,complete,NaN,63bdb64bc7338fb4af0e3822,computer,Desktop or Laptop,Chromium OS 15183.69.0,Chrome 108.0.0.0,1536x864,1536x864,Start of Day 2,SLS,90,B,NaN,NaN,NaN,Pass,End of Day 1,Pass,NaN,Pass,NaN,Pass,NaN,Start of Day 2,schedule_B,schedule_B,18,8,5,feedback_r,Zone7,timelimit_screen,1999.254,NaN,NaN,,NaN,0,1,0,NaN,NaN,1,NaN,NaN,trial_right,greenBox.png,blueBox.png,greenBox.png,al2_uncon.png,28,17,NaN,NaN,0.15,0.15,0,1,0,1,Stable,Stable,2.714,0.739,1.975,1.134,inexpert
88,1673378866743,10/01/2023 19:27:46,1673378866588,0,10/01/2023 19:27:46,111483,5,task-rbyw,repeat-u7ds#1->-repeat-l3h2#1,26307245,BLIND,7766384,NaN,complete,NaN,63bdb64bc7338fb4af0e3822,computer,Desktop or Laptop,Chromium OS 15183.69.0,Chrome 108.0.0.0,1536x864,1536x864,Start of Day 2,SLS,90,B,NaN,NaN,NaN,Pass,End of Day 1,Pass,NaN,Pass,NaN,Pass,NaN,Start of Day 2,schedule_B,schedule_B,18,8,6,end,Zone1,timelimit_screen,150.066999999995,NaN,NaN,,NaN,0,1,0,NaN,NaN,1,NaN,NaN,trial_right,greenBox.png,blueBox.png,greenBox.png,al2_uncon.png,28,17,NaN,NaN,0.15,0.15,0,1,0,1,Stable,Stable,2.714,0.739,1.975,1.134,inexpert
89,1673378868080,10/01/2023 19:27:48,1673378867916,0,10/01/2023 19:27:47,111483,5,task-rbyw,repeat-u7ds#1->-repeat-l3h2#1,26307245,BLIND,7766384,NaN,complete,NaN,63bdb64bc7338fb4af0e3822,computer,Desktop or Laptop,Chromium OS 15183.69.0,Chrome 108.0.0.0,1536x864,1536x864,Start of Day 2,SLS,90,B,NaN,NaN,NaN,Pass,End of Day 1,Pass,NaN,Pass,NaN,Pass,NaN,Start of Day 2,schedule_B,schedule_B,19,9,1,Screen 1,Zone1,continue_button,1297.19999998808,NaN,NaN,,NaN,0,1,0,NaN,NaN,NaN,NaN,NaN,trial_right,greenBox.png,greenBox.png,blueBox.png,al2_uncon.png,29,18,NaN,NaN,0.15,0.15,0,0,1,0,Stable,Stable,3.874,0.676,1.496,1.639,inexpert
90,1673378869061,10/01/2023 19:27:49,1673378868904,0,10/01/2023 19:27:48,111483,5,task-rbyw,repeat-u7ds#1->-repeat-l3h2#1,26307245,BLIND,7766384,NaN,complete,NaN,63bdb64bc7338fb4af0e3822,computer,Desktop or Laptop,Chromium OS 15183.69.0,Chrome 108.0.0.0,1536x864,1536x864,Start of Day 2,SLS,90,B,NaN,NaN,NaN,Pass,End of Day 1,Pass,NaN,Pass,NaN,Pass,NaN,Start of Day 2,schedule_B,schedule_B,19,9,2,individual,Zone4,timelimit_screen,999.611000000004,NaN,NaN,,NaN,0,1,0,NaN,NaN,1,NaN,NaN,trial_right,greenBox.png,greenBox.png,blueBox.png,al2_uncon.png,29,18,NaN,NaN,0.15,0.15,0,0,1,0,Stable,Stable,3.874,0.676,1.496,1.639,inexpert
91,1673378870129,10/01/2023 19:27:50,1673378869975,0,10/01/2023 19:27:49,111483,5,task-rbyw,repeat-u7ds#1->-repeat-l3h2#1,26307245,BLIND,7766384,NaN,complete,NaN,63bdb64bc7338fb4af0e3822,computer,Desktop or Laptop,Chromium OS 15183.69.0,Chrome 108.0.0.0,1536x864,1536x864,Start of Day 2,SLS,90,B,NaN,NaN,NaN,Pass,End of Day 1,Pass,NaN,Pass,NaN,Pass,NaN,Start of Day 2,schedule_B,schedule_B,19,9,3,offer,Zone3,response_button_image,1053,NaN,NaN,blueBox.png,1,0,1,0,NaN,NaN,NaN,NaN,NaN,trial_right,greenBox.png,greenBox.png,blueBox.png,al2_uncon.png,29,18,NaN,NaN,0.15,0.15,0,0,1,0,Stable,Stable,3.874,0.676,1.496,1.639,inexpert
92,1673378872156,10/01/2023 19:27:52,1673378871979,0,10/01/2023 19:27:51,111483,5,task-rbyw,repeat-u7ds#1->-repeat-l3h2#1,26307245,BLIND,7766384,NaN,complete,NaN,63bdb64bc7338fb4af0e3822,computer,Desktop or Laptop,Chromium OS 15183.69.0,Chrome 108.0.0.0,1536x864,1536x864,Start of Day 2,SLS,90,B,NaN,NaN,NaN,Pass,End of Day 1,Pass,NaN,Pass,NaN,Pass,NaN,Start of Day 2,schedule_B,schedule_B,19,9,5,feedback_r,Zone7,timelimit_screen,1999.27899999999,NaN,NaN,,NaN,0,1,0,NaN,NaN,1,NaN,NaN,trial_right,greenBox.png,greenBox.png,blueBox.png,al2_uncon.png,29,18,NaN,NaN,0.15,0.15,0,0,1,0,Stable,Stable,3.874,0.676,1.496,1.639,inexpert
93,1673378872274,10/01/2023 19:27:52,1673378872119,0,10/01/2023 19:27:52,111483,5,task-rbyw,repeat-u7ds#1->-repeat-l3h2#1,26307245,BLIND,7766384,NaN,complete,NaN,63bdb64bc7338fb4af0e3822,computer,Desktop or Laptop,Chromium OS 15183.69.0,Chrome 108.0.0.0,1536x864,1536x864,Start of Day 2,SLS,90,B,NaN,NaN,NaN,Pass,End of Day 1,Pass,NaN,Pass,NaN,Pass,NaN,Start of Day 2,schedule_B,schedule_B,19,9,6,end,Zone1,timelimit_screen,150.061000000002,NaN,NaN,,NaN,0,1,0,NaN,NaN,1,NaN,NaN,trial_right,greenBox.png,greenBox.png,blueBox.png,al2_uncon.png,29,18,NaN,NaN,0.15,0.15,0,0,1,0,Stable,Stable,3.874,0.676,1.496,1.639,inexpert
94,1673378872712,10/01/2023 19:27:52,1673378872544,0,10/01/2023 19:27:52,111483,5,task-rbyw,repeat-u7ds#1->-repeat-l3h2#1,26307245,BLIND,7766384,NaN,complete,NaN,63bdb64bc7338fb4af0e3822,computer,Desktop or Laptop,Chromium OS 15183.69.0,Chrome 108.0.0.0,1536x864,1536x864,Start of Day 2,SLS,90,B,NaN,NaN,NaN,Pass,End of Day 1,Pass,NaN,Pass,NaN,Pass,NaN,Start of Day 2,schedule_B,schedule_B,20,10,1,Screen 1,Zone1,continue_button,395.399999991059,NaN,NaN,,NaN,0,1,0,NaN,NaN,NaN,NaN,NaN,trial_left,greenBox.png,greenBox.png,blueBox.png,al2_uncon.png,30,19,NaN,NaN,0.15,0.15,0,1,0,0,Stable,Stable,1.252,1.193,0.853,2.681,inexpert
95,1673378873874,10/01/2023 19:27:53,1673378873535,0,10/01/2023 19:27:53,111483,5,task-rbyw,repeat-u7ds#1->-repeat-l3h2#1,26307245,BLIND,7766384,NaN,complete,NaN,63bdb64bc7338fb4af0e3822,computer,Desktop or Laptop,Chromium OS 15183.69.0,Chrome 108.0.0.0,1536x864,1536x864,Start of Day 2,SLS,90,B,NaN,NaN,NaN,Pass,End of Day 1,Pass,NaN,Pass,NaN,Pass,NaN,Start of Day 2,schedule_B,schedule_B,20,10,2,individual,Zone4,timelimit_screen,999.620999999999,NaN,NaN,,NaN,0,1,0,NaN,NaN,1,NaN,NaN,trial_left,greenBox.png,greenBox.png,blueBox.png,al2_uncon.png,30,19,NaN,NaN,0.15,0.15,0,1,0,0,Stable,Stable,1.252,1.193,0.853,2.681,inexpert
96,1673378874532,10/01/2023 19:27:54,1673378874385,0,10/01/2023 19:27:54,111483,5,task-rbyw,repeat-u7ds#1->-repeat-l3h2#1,26307245,BLIND,7766384,NaN,complete,NaN,63bdb64bc7338fb4af0e3822,computer,Desktop or Laptop,Chromium OS 15183.69.0,Chrome 108.0.0.0,1536x864,1536x864,Start of Day 2,SLS,90,B,NaN,NaN,NaN,Pass,End of Day 1,Pass,NaN,Pass,NaN,Pass,NaN,Start of Day 2,schedule_B,schedule_B,20,10,3,offer,bluebox,response_button_image,825.5,NaN,NaN,blueBox.png,1,0,1,0,NaN,NaN,NaN,NaN,NaN,trial_left,greenBox.png,greenBox.png,blueBox.png,al2_uncon.png,30,19,NaN,NaN,0.15,0.15,0,1,0,0,Stable,Stable,1.252,1.193,0.853,2.681,inexpert
97,1673378876519,10/01/2023 19:27:56,1673378876368,0,10/01/2023 19:27:56,111483,5,task-rbyw,repeat-u7ds#1->-repeat-l3h2#1,26307245,BLIND,7766384,NaN,complete,NaN,63bdb64bc7338fb4af0e3822,computer,Desktop or Laptop,Chromium OS 15183.69.0,Chrome 108.0.0.0,1536x864,1536x864,Start of Day 2,SLS,90,B,NaN,NaN,NaN,Pass,End of Day 1,Pass,NaN,Pass,NaN,Pass,NaN,Start of Day 2,schedule_B,schedule_B,20,10,5,feedback_r,Zone7,timelimit_screen,1999.249,NaN,NaN,,NaN,0,1,0,NaN,NaN,1,NaN,NaN,trial_left,greenBox.png,greenBox.png,blueBox.png,al2_uncon.png,30,19,NaN,NaN,0.15,0.15,0,1,0,0,Stable,Stable,1.252,1.193,0.853,2.681,inexpert
98,1673378876737,10/01/2023 19:27:56,1673378876517,0,10/01/2023 19:27:56,111483,5,task-rbyw,repeat-u7ds#1->-repeat-l3h2#1,26307245,BLIND,7766384,NaN,complete,NaN,63bdb64bc7338fb4af0e3822,computer,Desktop or Laptop,Chromium OS 15183.69.0,Chrome 108.0.0.0,1536x864,1536x864,Start of Day 2,SLS,90,B,NaN,NaN,NaN,Pass,End of Day 1,Pass,NaN,Pass,NaN,Pass,NaN,Start of Day 2,schedule_B,schedule_B,20,10,6,end,Zone1,timelimit_screen,150.061000000002,NaN,NaN,,NaN,0,1,0,NaN,NaN,1,NaN,NaN,trial_left,greenBox.png,greenBox.png,blueBox.png,al2_uncon.png,30,19,NaN,NaN,0.15,0.15,0,1,0,0,Stable,Stable,1.252,1.193,0.853,2.681,inexpert
99,1673378877987,10/01/2023 19:27:57,1673378877830,0,10/01/2023 19:27:57,111483,5,task-rbyw,repeat-u7ds#1->-repeat-l3h2#1,26307245,BLIND,7766384,NaN,complete,NaN,63bdb64bc7338fb4af0e3822,computer,Desktop or Laptop,Chromium OS 15183.69.0,Chrome 108.0.0.0,1536x864,1536x864,Start of Day 2,SLS,90,B,NaN,NaN,NaN,Pass,End of Day 1,Pass,NaN,Pass,NaN,Pass,NaN,Start of Day 2,schedule_B,schedule_B,21,10,1,Screen 1,Zone1,continue_button,1289,NaN,NaN,,NaN,0,1,0,NaN,NaN,NaN,NaN,NaN,trial_right,greenBox.png,greenBox.png,blueBox.png,al2_uncon.png,41,20,NaN,NaN,0.15,0.15,0,0,1,0,Stable,Stable,3.521,1.723,1.37,1.655,inexpert
100,1673378878983,10/01/2023 19:27:58,1673378878817,0,10/01/2023 19:27:58,111483,5,task-rbyw,repeat-u7ds#1->-repeat-l3h2#1,26307245,BLIND,7766384,NaN,complete,NaN,63bdb64bc7338fb4af0e3822,computer,Desktop or Laptop,Chromium OS 15183.69.0,Chrome 108.0.0.0,1536x864,1536x864,Start of Day 2,SLS,90,B,NaN,NaN,NaN,Pass,End of Day 1,Pass,NaN,Pass,NaN,Pass,NaN,Start of Day 2,schedule_B,schedule_B,21,10,2,individual,Zone4,timelimit_screen,999.614000000001,NaN,NaN,,NaN,0,1,0,NaN,NaN,1,NaN,NaN,trial_right,greenBox.png,greenBox.png,blueBox.png,al2_uncon.png,41,20,NaN,NaN,0.15,0.15,0,0,1,0,Stable,Stable,3.521,1.723,1.37,1.655,inexpert
101,1673378880487,10/01/2023 19:28:00,1673378880328,0,10/01/2023 19:28:00,111483,5,task-rbyw,repeat-u7ds#1->-repeat-l3h2#1,26307245,BLIND,7766384,NaN,complete,NaN,63bdb64bc7338fb4af0e3822,computer,Desktop or Laptop,Chromium OS 15183.69.0,Chrome 108.0.0.0,1536x864,1536x864,Start of Day 2,SLS,90,B,NaN,NaN,NaN,Pass,End of Day 1,Pass,NaN,Pass,NaN,Pass,NaN,Start of Day 2,schedule_B,schedule_B,21,10,3,offer,Zone3,response_button_image,1492.29999999702,NaN,NaN,blueBox.png,1,0,1,0,NaN,NaN,NaN,NaN,NaN,trial_right,greenBox.png,greenBox.png,blueBox.png,al2_uncon.png,41,20,NaN,NaN,0.15,0.15,0,0,1,0,Stable,Stable,3.521,1.723,1.37,1.655,inexpert
102,1673378882487,10/01/2023 19:28:02,1673378882316,0,10/01/2023 19:28:02,111483,5,task-rbyw,repeat-u7ds#1->-repeat-l3h2#1,26307245,BLIND,7766384,NaN,complete,NaN,63bdb64bc7338fb4af0e3822,computer,Desktop or Laptop,Chromium OS 15183.69.0,Chrome 108.0.0.0,1536x864,1536x864,Start of Day 2,SLS,90,B,NaN,NaN,NaN,Pass,End of Day 1,Pass,NaN,Pass,NaN,Pass,NaN,Start of Day 2,schedule_B,schedule_B,21,10,5,feedback_r,Zone7,timelimit_screen,1999.298,NaN,NaN,,NaN,0,1,0,NaN,NaN,1,NaN,NaN,trial_right,greenBox.png,greenBox.png,blueBox.png,al2_uncon.png,41,20,NaN,NaN,0.15,0.15,0,0,1,0,Stable,Stable,3.521,1.723,1.37,1.655,inexpert
103,1673378882610,10/01/2023 19:28:02,1673378882466,0,10/01/2023 19:28:02,111483,5,task-rbyw,repeat-u7ds#1->-repeat-l3h2#1,26307245,BLIND,7766384,NaN,complete,NaN,63bdb64bc7338fb4af0e3822,computer,Desktop or Laptop,Chromium OS 15183.69.0,Chrome 108.0.0.0,1536x864,1536x864,Start of Day 2,SLS,90,B,NaN,NaN,NaN,Pass,End of Day 1,Pass,NaN,Pass,NaN,Pass,NaN,Start of Day 2,schedule_B,schedule_B,21,10,6,end,Zone1,timelimit_screen,150.059999999998,NaN,NaN,,NaN,0,1,0,NaN,NaN,1,NaN,NaN,trial_right,greenBox.png,greenBox.png,blueBox.png,al2_uncon.png,41,20,NaN,NaN,0.15,0.15,0,0,1,0,Stable,Stable,3.521,1.723,1.37,1.655,inexpert
104,1673378883879,10/01/2023 19:28:03,1673378883723,0,10/01/2023 19:28:03,111483,5,task-rbyw,repeat-u7ds#1->-repeat-l3h2#1,26307245,BLIND,7766384,NaN,complete,NaN,63bdb64bc7338fb4af0e3822,computer,Desktop or Laptop,Chromium OS 15183.69.0,Chrome 108.0.0.0,1536x864,1536x864,Start of Day 2,SLS,90,B,NaN,NaN,NaN,Pass,End of Day 1,Pass,NaN,Pass,NaN,Pass,NaN,Start of Day 2,schedule_B,schedule_B,22,11,1,Screen 1,Zone1,continue_button,1230.70000000298,NaN,NaN,,NaN,0,1,0,NaN,NaN,NaN,NaN,NaN,trial_left,blueBox.png,blueBox.png,greenBox.png,al2_uncon.png,42,21,NaN,NaN,0.85,0.15,1,1,1,1,Stable,Stable,2.336,0.651,1.685,2.882,inexpert
105,1673378885041,10/01/2023 19:28:05,1673378884715,0,10/01/2023 19:28:04,111483,5,task-rbyw,repeat-u7ds#1->-repeat-l3h2#1,26307245,BLIND,7766384,NaN,complete,NaN,63bdb64bc7338fb4af0e3822,computer,Desktop or Laptop,Chromium OS 15183.69.0,Chrome 108.0.0.0,1536x864,1536x864,Start of Day 2,SLS,90,B,NaN,NaN,NaN,Pass,End of Day 1,Pass,NaN,Pass,NaN,Pass,NaN,Start of Day 2,schedule_B,schedule_B,22,11,2,individual,Zone4,timelimit_screen,999.633999999991,NaN,NaN,,NaN,0,1,0,NaN,NaN,1,NaN,NaN,trial_left,blueBox.png,blueBox.png,greenBox.png,al2_uncon.png,42,21,NaN,NaN,0.85,0.15,1,1,1,1,Stable,Stable,2.336,0.651,1.685,2.882,inexpert
106,1673378886643,10/01/2023 19:28:06,1673378886469,0,10/01/2023 19:28:06,111483,5,task-rbyw,repeat-u7ds#1->-repeat-l3h2#1,26307245,BLIND,7766384,NaN,complete,NaN,63bdb64bc7338fb4af0e3822,computer,Desktop or Laptop,Chromium OS 15183.69.0,Chrome 108.0.0.0,1536x864,1536x864,Start of Day 2,SLS,90,B,NaN,NaN,NaN,Pass,End of Day 1,Pass,NaN,Pass,NaN,Pass,NaN,Start of Day 2,schedule_B,schedule_B,22,11,3,offer,Zone2,response_button_image,1738.29999999702,NaN,NaN,blueBox.png,1,1,0,0,NaN,NaN,NaN,NaN,NaN,trial_left,blueBox.png,blueBox.png,greenBox.png,al2_uncon.png,42,21,NaN,NaN,0.85,0.15,1,1,1,1,Stable,Stable,2.336,0.651,1.685,2.882,inexpert
107,1673378888629,10/01/2023 19:28:08,1673378888464,0,10/01/2023 19:28:08,111483,5,task-rbyw,repeat-u7ds#1->-repeat-l3h2#1,26307245,BLIND,7766384,NaN,complete,NaN,63bdb64bc7338fb4af0e3822,computer,Desktop or Laptop,Chromium OS 15183.69.0,Chrome 108.0.0.0,1536x864,1536x864,Start of Day 2,SLS,90,B,NaN,NaN,NaN,Pass,End of Day 1,Pass,NaN,Pass,NaN,Pass,NaN,Start of Day 2,schedule_B,schedule_B,22,11,4,feedback_l,Zone7,timelimit_screen,1999.31600000001,NaN,NaN,,NaN,0,1,0,NaN,NaN,1,NaN,NaN,trial_left,blueBox.png,blueBox.png,greenBox.png,al2_uncon.png,42,21,NaN,NaN,0.85,0.15,1,1,1,1,Stable,Stable,2.336,0.651,1.685,2.882,inexpert
108,1673378888764,10/01/2023 19:28:08,1673378888614,0,10/01/2023 19:28:08,111483,5,task-rbyw,repeat-u7ds#1->-repeat-l3h2#1,26307245,BLIND,7766384,NaN,complete,NaN,63bdb64bc7338fb4af0e3822,computer,Desktop or Laptop,Chromium OS 15183.69.0,Chrome 108.0.0.0,1536x864,1536x864,Start of Day 2,SLS,90,B,NaN,NaN,NaN,Pass,End of Day 1,Pass,NaN,Pass,NaN,Pass,NaN,Start of Day 2,schedule_B,schedule_B,22,11,6,end,Zone1,timelimit_screen,150.069999999992,NaN,NaN,,NaN,0,1,0,NaN,NaN,1,NaN,NaN,trial_left,blueBox.png,blueBox.png,greenBox.png,al2_uncon.png,42,21,NaN,NaN,0.85,0.15,1,1,1,1,Stable,Stable,2.336,0.651,1.685,2.882,inexpert
109,1673378889751,10/01/2023 19:28:09,1673378889587,0,10/01/2023 19:28:09,111483,5,task-rbyw,repeat-u7ds#1->-repeat-l3h2#1,26307245,BLIND,7766384,NaN,complete,NaN,63bdb64bc7338fb4af0e3822,computer,Desktop or Laptop,Chromium OS 15183.69.0,Chrome 108.0.0.0,1536x864,1536x864,Start of Day 2,SLS,90,B,NaN,NaN,NaN,Pass,End of Day 1,Pass,NaN,Pass,NaN,Pass,NaN,Start of Day 2,schedule_B,schedule_B,23,11,1,Screen 1,Zone1,continue_button,942.300000011921,NaN,NaN,,NaN,0,1,0,NaN,NaN,NaN,NaN,NaN,trial_right,blueBox.png,blueBox.png,greenBox.png,al2_uncon.png,43,22,NaN,NaN,0.85,0.15,1,0,0,1,Stable,Stable,3.622,1.319,1.193,1.067,inexpert
110,1673378890753,10/01/2023 19:28:10,1673378890580,0,10/01/2023 19:28:10,111483,5,task-rbyw,repeat-u7ds#1->-repeat-l3h2#1,26307245,BLIND,7766384,NaN,complete,NaN,63bdb64bc7338fb4af0e3822,computer,Desktop or Laptop,Chromium OS 15183.69.0,Chrome 108.0.0.0,1536x864,1536x864,Start of Day 2,SLS,90,B,NaN,NaN,NaN,Pass,End of Day 1,Pass,NaN,Pass,NaN,Pass,NaN,Start of Day 2,schedule_B,schedule_B,23,11,2,individual,Zone4,timelimit_screen,999.652999999991,NaN,NaN,,NaN,0,1,0,NaN,NaN,1,NaN,NaN,trial_right,blueBox.png,blueBox.png,greenBox.png,al2_uncon.png,43,22,NaN,NaN,0.85,0.15,1,0,0,1,Stable,Stable,3.622,1.319,1.193,1.067,inexpert
111,1673378891757,10/01/2023 19:28:11,1673378891587,0,10/01/2023 19:28:11,111483,5,task-rbyw,repeat-u7ds#1->-repeat-l3h2#1,26307245,BLIND,7766384,NaN,complete,NaN,63bdb64bc7338fb4af0e3822,computer,Desktop or Laptop,Chromium OS 15183.69.0,Chrome 108.0.0.0,1536x864,1536x864,Start of Day 2,SLS,90,B,NaN,NaN,NaN,Pass,End of Day 1,Pass,NaN,Pass,NaN,Pass,NaN,Start of Day 2,schedule_B,schedule_B,23,11,3,offer,Zone3,response_button_image,987.29999999702,NaN,NaN,greenBox.png,1,0,1,0,NaN,NaN,NaN,NaN,NaN,trial_right,blueBox.png,blueBox.png,greenBox.png,al2_uncon.png,43,22,NaN,NaN,0.85,0.15,1,0,0,1,Stable,Stable,3.622,1.319,1.193,1.067,inexpert
112,1673378893738,10/01/2023 19:28:13,1673378893578,0,10/01/2023 19:28:13,111483,5,task-rbyw,repeat-u7ds#1->-repeat-l3h2#1,26307245,BLIND,7766384,NaN,complete,NaN,63bdb64bc7338fb4af0e3822,computer,Desktop or Laptop,Chromium OS 15183.69.0,Chrome 108.0.0.0,1536x864,1536x864,Start of Day 2,SLS,90,B,NaN,NaN,NaN,Pass,End of Day 1,Pass,NaN,Pass,NaN,Pass,NaN,Start of Day 2,schedule_B,schedule_B,23,11,5,feedback_r,Zone7,timelimit_screen,1999.274,NaN,NaN,,NaN,0,1,0,NaN,NaN,1,NaN,NaN,trial_right,blueBox.png,blueBox.png,greenBox.png,al2_uncon.png,43,22,NaN,NaN,0.85,0.15,1,0,0,1,Stable,Stable,3.622,1.319,1.193,1.067,inexpert
113,1673378893963,10/01/2023 19:28:13,1673378893729,0,10/01/2023 19:28:13,111483,5,task-rbyw,repeat-u7ds#1->-repeat-l3h2#1,26307245,BLIND,7766384,NaN,complete,NaN,63bdb64bc7338fb4af0e3822,computer,Desktop or Laptop,Chromium OS 15183.69.0,Chrome 108.0.0.0,1536x864,1536x864,Start of Day 2,SLS,90,B,NaN,NaN,NaN,Pass,End of Day 1,Pass,NaN,Pass,NaN,Pass,NaN,Start of Day 2,schedule_B,schedule_B,23,11,6,end,Zone1,timelimit_screen,150.062999999995,NaN,NaN,,NaN,0,1,0,NaN,NaN,1,NaN,NaN,trial_right,blueBox.png,blueBox.png,greenBox.png,al2_uncon.png,43,22,NaN,NaN,0.85,0.15,1,0,0,1,Stable,Stable,3.622,1.319,1.193,1.067,inexpert
114,1673378894881,10/01/2023 19:28:14,1673378894722,0,10/01/2023 19:28:14,111483,5,task-rbyw,repeat-u7ds#1->-repeat-l3h2#1,26307245,BLIND,7766384,NaN,complete,NaN,63bdb64bc7338fb4af0e3822,computer,Desktop or Laptop,Chromium OS 15183.69.0,Chrome 108.0.0.0,1536x864,1536x864,Start of Day 2,SLS,90,B,NaN,NaN,NaN,Pass,End of Day 1,Pass,NaN,Pass,NaN,Pass,NaN,Start of Day 2,schedule_B,schedule_B,24,12,1,Screen 1,Zone1,continue_button,965.09999999404,NaN,NaN,,NaN,0,1,0,NaN,NaN,NaN,NaN,NaN,trial_left,blueBox.png,greenBox.png,blueBox.png,al2_uncon.png,44,23,NaN,NaN,0.85,0.15,1,0,0,0,Stable,Stable,1.731,0.853,2,1.202,inexpert
115,1673378895883,10/01/2023 19:28:15,1673378895712,0,10/01/2023 19:28:15,111483,5,task-rbyw,repeat-u7ds#1->-repeat-l3h2#1,26307245,BLIND,7766384,NaN,complete,NaN,63bdb64bc7338fb4af0e3822,computer,Desktop or Laptop,Chromium OS 15183.69.0,Chrome 108.0.0.0,1536x864,1536x864,Start of Day 2,SLS,90,B,NaN,NaN,NaN,Pass,End of Day 1,Pass,NaN,Pass,NaN,Pass,NaN,Start of Day 2,schedule_B,schedule_B,24,12,2,individual,Zone4,timelimit_screen,999.616999999998,NaN,NaN,,NaN,0,1,0,NaN,NaN,1,NaN,NaN,trial_left,blueBox.png,greenBox.png,blueBox.png,al2_uncon.png,44,23,NaN,NaN,0.85,0.15,1,0,0,0,Stable,Stable,1.731,0.853,2,1.202,inexpert
116,1673378896690,10/01/2023 19:28:16,1673378896542,0,10/01/2023 19:28:16,111483,5,task-rbyw,repeat-u7ds#1->-repeat-l3h2#1,26307245,BLIND,7766384,NaN,complete,NaN,63bdb64bc7338fb4af0e3822,computer,Desktop or Laptop,Chromium OS 15183.69.0,Chrome 108.0.0.0,1536x864,1536x864,Start of Day 2,SLS,90,B,NaN,NaN,NaN,Pass,End of Day 1,Pass,NaN,Pass,NaN,Pass,NaN,Start of Day 2,schedule_B,schedule_B,24,12,3,offer,Zone2,response_button_image,807,NaN,NaN,greenBox.png,1,0,1,0,NaN,NaN,NaN,NaN,NaN,trial_left,blueBox.png,greenBox.png,blueBox.png,al2_uncon.png,44,23,NaN,NaN,0.85,0.15,1,0,0,0,Stable,Stable,1.731,0.853,2,1.202,inexpert
117,1673378898696,10/01/2023 19:28:18,1673378898527,0,10/01/2023 19:28:18,111483,5,task-rbyw,repeat-u7ds#1->-repeat-l3h2#1,26307245,BLIND,7766384,NaN,complete,NaN,63bdb64bc7338fb4af0e3822,computer,Desktop or Laptop,Chromium OS 15183.69.0,Chrome 108.0.0.0,1536x864,1536x864,Start of Day 2,SLS,90,B,NaN,NaN,NaN,Pass,End of Day 1,Pass,NaN,Pass,NaN,Pass,NaN,Start of Day 2,schedule_B,schedule_B,24,12,4,feedback_l,Zone7,timelimit_screen,1999.249,NaN,NaN,,NaN,0,1,0,NaN,NaN,1,NaN,NaN,trial_left,blueBox.png,greenBox.png,blueBox.png,al2_uncon.png,44,23,NaN,NaN,0.85,0.15,1,0,0,0,Stable,Stable,1.731,0.853,2,1.202,inexpert
118,1673378898889,10/01/2023 19:28:18,1673378898677,0,10/01/2023 19:28:18,111483,5,task-rbyw,repeat-u7ds#1->-repeat-l3h2#1,26307245,BLIND,7766384,NaN,complete,NaN,63bdb64bc7338fb4af0e3822,computer,Desktop or Laptop,Chromium OS 15183.69.0,Chrome 108.0.0.0,1536x864,1536x864,Start of Day 2,SLS,90,B,NaN,NaN,NaN,Pass,End of Day 1,Pass,NaN,Pass,NaN,Pass,NaN,Start of Day 2,schedule_B,schedule_B,24,12,6,end,Zone1,timelimit_screen,150.067999999999,NaN,NaN,,NaN,0,1,0,NaN,NaN,1,NaN,NaN,trial_left,blueBox.png,greenBox.png,blueBox.png,al2_uncon.png,44,23,NaN,NaN,0.85,0.15,1,0,0,0,Stable,Stable,1.731,0.853,2,1.202,inexpert
119,1673378899649,10/01/2023 19:28:19,1673378899483,0,10/01/2023 19:28:19,111483,5,task-rbyw,repeat-u7ds#1->-repeat-l3h2#1,26307245,BLIND,7766384,NaN,complete,NaN,63bdb64bc7338fb4af0e3822,computer,Desktop or Laptop,Chromium OS 15183.69.0,Chrome 108.0.0.0,1536x864,1536x864,Start of Day 2,SLS,90,B,NaN,NaN,NaN,Pass,End of Day 1,Pass,NaN,Pass,NaN,Pass,NaN,Start of Day 2,schedule_B,schedule_B,25,13,1,Screen 1,Zone1,continue_button,772.20000000298,NaN,NaN,,NaN,0,1,0,NaN,NaN,NaN,NaN,NaN,trial_left,blueBox.png,blueBox.png,greenBox.png,al2_uncon.png,45,24,NaN,NaN,0.85,0.15,1,1,1,1,Stable,Stable,2.109,1.798,1.508,2.782,inexpert
120,1673378900628,10/01/2023 19:28:20,1673378900476,0,10/01/2023 19:28:20,111483,5,task-rbyw,repeat-u7ds#1->-repeat-l3h2#1,26307245,BLIND,7766384,NaN,complete,NaN,63bdb64bc7338fb4af0e3822,computer,Desktop or Laptop,Chromium OS 15183.69.0,Chrome 108.0.0.0,1536x864,1536x864,Start of Day 2,SLS,90,B,NaN,NaN,NaN,Pass,End of Day 1,Pass,NaN,Pass,NaN,Pass,NaN,Start of Day 2,schedule_B,schedule_B,25,13,2,individual,Zone4,timelimit_screen,999.615999999995,NaN,NaN,,NaN,0,1,0,NaN,NaN,1,NaN,NaN,trial_left,blueBox.png,blueBox.png,greenBox.png,al2_uncon.png,45,24,NaN,NaN,0.85,0.15,1,1,1,1,Stable,Stable,2.109,1.798,1.508,2.782,inexpert
121,1673378901684,10/01/2023 19:28:21,1673378901519,0,10/01/2023 19:28:21,111483,5,task-rbyw,repeat-u7ds#1->-repeat-l3h2#1,26307245,BLIND,7766384,NaN,complete,NaN,63bdb64bc7338fb4af0e3822,computer,Desktop or Laptop,Chromium OS 15183.69.0,Chrome 108.0.0.0,1536x864,1536x864,Start of Day 2,SLS,90,B,NaN,NaN,NaN,Pass,End of Day 1,Pass,NaN,Pass,NaN,Pass,NaN,Start of Day 2,schedule_B,schedule_B,25,13,3,offer,bluebox,response_button_image,1024.79999999702,NaN,NaN,greenBox.png,1,0,1,0,NaN,NaN,NaN,NaN,NaN,trial_left,blueBox.png,blueBox.png,greenBox.png,al2_uncon.png,45,24,NaN,NaN,0.85,0.15,1,1,1,1,Stable,Stable,2.109,1.798,1.508,2.782,inexpert
122,1673378903680,10/01/2023 19:28:23,1673378903509,0,10/01/2023 19:28:23,111483,5,task-rbyw,repeat-u7ds#1->-repeat-l3h2#1,26307245,BLIND,7766384,NaN,complete,NaN,63bdb64bc7338fb4af0e3822,computer,Desktop or Laptop,Chromium OS 15183.69.0,Chrome 108.0.0.0,1536x864,1536x864,Start of Day 2,SLS,90,B,NaN,NaN,NaN,Pass,End of Day 1,Pass,NaN,Pass,NaN,Pass,NaN,Start of Day 2,schedule_B,schedule_B,25,13,5,feedback_r,Zone7,timelimit_screen,1999.26699999999,NaN,NaN,,NaN,0,1,0,NaN,NaN,1,NaN,NaN,trial_left,blueBox.png,blueBox.png,greenBox.png,al2_uncon.png,45,24,NaN,NaN,0.85,0.15,1,1,1,1,Stable,Stable,2.109,1.798,1.508,2.782,inexpert
123,1673378903819,10/01/2023 19:28:23,1673378903658,0,10/01/2023 19:28:23,111483,5,task-rbyw,repeat-u7ds#1->-repeat-l3h2#1,26307245,BLIND,7766384,NaN,complete,NaN,63bdb64bc7338fb4af0e3822,computer,Desktop or Laptop,Chromium OS 15183.69.0,Chrome 108.0.0.0,1536x864,1536x864,Start of Day 2,SLS,90,B,NaN,NaN,NaN,Pass,End of Day 1,Pass,NaN,Pass,NaN,Pass,NaN,Start of Day 2,schedule_B,schedule_B,25,13,6,end,Zone1,timelimit_screen,150.061999999991,NaN,NaN,,NaN,0,1,0,NaN,NaN,1,NaN,NaN,trial_left,blueBox.png,blueBox.png,greenBox.png,al2_uncon.png,45,24,NaN,NaN,0.85,0.15,1,1,1,1,Stable,Stable,2.109,1.798,1.508,2.782,inexpert
124,1673378905108,10/01/2023 19:28:25,1673378904707,0,10/01/2023 19:28:24,111483,5,task-rbyw,repeat-u7ds#1->-repeat-l3h2#1,26307245,BLIND,7766384,NaN,complete,NaN,63bdb64bc7338fb4af0e3822,computer,Desktop or Laptop,Chromium OS 15183.69.0,Chrome 108.0.0.0,1536x864,1536x864,Start of Day 2,SLS,90,B,NaN,NaN,NaN,Pass,End of Day 1,Pass,NaN,Pass,NaN,Pass,NaN,Start of Day 2,schedule_B,schedule_B,26,12,1,Screen 1,Zone1,continue_button,1018.20000000298,NaN,NaN,,NaN,0,1,0,NaN,NaN,NaN,NaN,NaN,trial_right,blueBox.png,greenBox.png,blueBox.png,al2_uncon.png,46,25,NaN,NaN,0.85,0.15,1,1,1,0,Stable,Stable,2.916,1.294,1.962,2.361,inexpert
125,1673378905846,10/01/2023 19:28:25,1673378905692,0,10/01/2023 19:28:25,111483,5,task-rbyw,repeat-u7ds#1->-repeat-l3h2#1,26307245,BLIND,7766384,NaN,complete,NaN,63bdb64bc7338fb4af0e3822,computer,Desktop or Laptop,Chromium OS 15183.69.0,Chrome 108.0.0.0,1536x864,1536x864,Start of Day 2,SLS,90,B,NaN,NaN,NaN,Pass,End of Day 1,Pass,NaN,Pass,NaN,Pass,NaN,Start of Day 2,schedule_B,schedule_B,26,12,2,individual,Zone4,timelimit_screen,999.611000000004,NaN,NaN,,NaN,0,1,0,NaN,NaN,1,NaN,NaN,trial_right,blueBox.png,greenBox.png,blueBox.png,al2_uncon.png,46,25,NaN,NaN,0.85,0.15,1,1,1,0,Stable,Stable,2.916,1.294,1.962,2.361,inexpert
126,1673378906620,10/01/2023 19:28:26,1673378906457,0,10/01/2023 19:28:26,111483,5,task-rbyw,repeat-u7ds#1->-repeat-l3h2#1,26307245,BLIND,7766384,NaN,complete,NaN,63bdb64bc7338fb4af0e3822,computer,Desktop or Laptop,Chromium OS 15183.69.0,Chrome 108.0.0.0,1536x864,1536x864,Start of Day 2,SLS,90,B,NaN,NaN,NaN,Pass,End of Day 1,Pass,NaN,Pass,NaN,Pass,NaN,Start of Day 2,schedule_B,schedule_B,26,12,3,offer,Zone3,response_button_image,744,NaN,NaN,blueBox.png,1,1,0,0,NaN,NaN,NaN,NaN,NaN,trial_right,blueBox.png,greenBox.png,blueBox.png,al2_uncon.png,46,25,NaN,NaN,0.85,0.15,1,1,1,0,Stable,Stable,2.916,1.294,1.962,2.361,inexpert
127,1673378908612,10/01/2023 19:28:28,1673378908441,0,10/01/2023 19:28:28,111483,5,task-rbyw,repeat-u7ds#1->-repeat-l3h2#1,26307245,BLIND,7766384,NaN,complete,NaN,63bdb64bc7338fb4af0e3822,computer,Desktop or Laptop,Chromium OS 15183.69.0,Chrome 108.0.0.0,1536x864,1536x864,Start of Day 2,SLS,90,B,NaN,NaN,NaN,Pass,End of Day 1,Pass,NaN,Pass,NaN,Pass,NaN,Start of Day 2,schedule_B,schedule_B,26,12,5,feedback_r,Zone7,timelimit_screen,1999.345,NaN,NaN,,NaN,0,1,0,NaN,NaN,1,NaN,NaN,trial_right,blueBox.png,greenBox.png,blueBox.png,al2_uncon.png,46,25,NaN,NaN,0.85,0.15,1,1,1,0,Stable,Stable,2.916,1.294,1.962,2.361,inexpert
128,1673378908756,10/01/2023 19:28:28,1673378908590,0,10/01/2023 19:28:28,111483,5,task-rbyw,repeat-u7ds#1->-repeat-l3h2#1,26307245,BLIND,7766384,NaN,complete,NaN,63bdb64bc7338fb4af0e3822,computer,Desktop or Laptop,Chromium OS 15183.69.0,Chrome 108.0.0.0,1536x864,1536x864,Start of Day 2,SLS,90,B,NaN,NaN,NaN,Pass,End of Day 1,Pass,NaN,Pass,NaN,Pass,NaN,Start of Day 2,schedule_B,schedule_B,26,12,6,end,Zone1,timelimit_screen,149.956999999995,NaN,NaN,,NaN,0,1,0,NaN,NaN,1,NaN,NaN,trial_right,blueBox.png,greenBox.png,blueBox.png,al2_uncon.png,46,25,NaN,NaN,0.85,0.15,1,1,1,0,Stable,Stable,2.916,1.294,1.962,2.361,inexpert
129,1673378909775,10/01/2023 19:28:29,1673378909602,0,10/01/2023 19:28:29,111483,5,task-rbyw,repeat-u7ds#1->-repeat-l3h2#1,26307245,BLIND,7766384,NaN,complete,NaN,63bdb64bc7338fb4af0e3822,computer,Desktop or Laptop,Chromium OS 15183.69.0,Chrome 108.0.0.0,1536x864,1536x864,Start of Day 2,SLS,90,B,NaN,NaN,NaN,Pass,End of Day 1,Pass,NaN,Pass,NaN,Pass,NaN,Start of Day 2,schedule_B,schedule_B,27,13,1,Screen 1,Zone1,continue_button,977.70000000298,NaN,NaN,,NaN,0,1,0,NaN,NaN,NaN,NaN,NaN,trial_right,blueBox.png,blueBox.png,greenBox.png,al2_uncon.png,47,26,NaN,NaN,0.85,0.15,1,0,0,1,Stable,Stable,2.487,1.697,1.13,1.286,inexpert
130,1673378910746,10/01/2023 19:28:30,1673378910590,0,10/01/2023 19:28:30,111483,5,task-rbyw,repeat-u7ds#1->-repeat-l3h2#1,26307245,BLIND,7766384,NaN,complete,NaN,63bdb64bc7338fb4af0e3822,computer,Desktop or Laptop,Chromium OS 15183.69.0,Chrome 108.0.0.0,1536x864,1536x864,Start of Day 2,SLS,90,B,NaN,NaN,NaN,Pass,End of Day 1,Pass,NaN,Pass,NaN,Pass,NaN,Start of Day 2,schedule_B,schedule_B,27,13,2,individual,Zone4,timelimit_screen,999.606,NaN,NaN,,NaN,0,1,0,NaN,NaN,1,NaN,NaN,trial_right,blueBox.png,blueBox.png,greenBox.png,al2_uncon.png,47,26,NaN,NaN,0.85,0.15,1,0,0,1,Stable,Stable,2.487,1.697,1.13,1.286,inexpert
131,1673378912472,10/01/2023 19:28:32,1673378912298,0,10/01/2023 19:28:32,111483,5,task-rbyw,repeat-u7ds#1->-repeat-l3h2#1,26307245,BLIND,7766384,NaN,complete,NaN,63bdb64bc7338fb4af0e3822,computer,Desktop or Laptop,Chromium OS 15183.69.0,Chrome 108.0.0.0,1536x864,1536x864,Start of Day 2,SLS,90,B,NaN,NaN,NaN,Pass,End of Day 1,Pass,NaN,Pass,NaN,Pass,NaN,Start of Day 2,schedule_B,schedule_B,27,13,3,offer,Zone3,response_button_image,1692.20000000298,NaN,NaN,greenBox.png,1,0,1,0,NaN,NaN,NaN,NaN,NaN,trial_right,blueBox.png,blueBox.png,greenBox.png,al2_uncon.png,47,26,NaN,NaN,0.85,0.15,1,0,0,1,Stable,Stable,2.487,1.697,1.13,1.286,inexpert
132,1673378914632,10/01/2023 19:28:34,1673378914288,0,10/01/2023 19:28:34,111483,5,task-rbyw,repeat-u7ds#1->-repeat-l3h2#1,26307245,BLIND,7766384,NaN,complete,NaN,63bdb64bc7338fb4af0e3822,computer,Desktop or Laptop,Chromium OS 15183.69.0,Chrome 108.0.0.0,1536x864,1536x864,Start of Day 2,SLS,90,B,NaN,NaN,NaN,Pass,End of Day 1,Pass,NaN,Pass,NaN,Pass,NaN,Start of Day 2,schedule_B,schedule_B,27,13,5,feedback_r,Zone7,timelimit_screen,1999.29799999998,NaN,NaN,,NaN,0,1,0,NaN,NaN,1,NaN,NaN,trial_right,blueBox.png,blueBox.png,greenBox.png,al2_uncon.png,47,26,NaN,NaN,0.85,0.15,1,0,0,1,Stable,Stable,2.487,1.697,1.13,1.286,inexpert
133,1673378914809,10/01/2023 19:28:34,1673378914438,0,10/01/2023 19:28:34,111483,5,task-rbyw,repeat-u7ds#1->-repeat-l3h2#1,26307245,BLIND,7766384,NaN,complete,NaN,63bdb64bc7338fb4af0e3822,computer,Desktop or Laptop,Chromium OS 15183.69.0,Chrome 108.0.0.0,1536x864,1536x864,Start of Day 2,SLS,90,B,NaN,NaN,NaN,Pass,End of Day 1,Pass,NaN,Pass,NaN,Pass,NaN,Start of Day 2,schedule_B,schedule_B,27,13,6,end,Zone1,timelimit_screen,150.073000000004,NaN,NaN,,NaN,0,1,0,NaN,NaN,1,NaN,NaN,trial_right,blueBox.png,blueBox.png,greenBox.png,al2_uncon.png,47,26,NaN,NaN,0.85,0.15,1,0,0,1,Stable,Stable,2.487,1.697,1.13,1.286,inexpert
134,1673378915337,10/01/2023 19:28:35,1673378915166,0,10/01/2023 19:28:35,111483,5,task-rbyw,repeat-u7ds#1->-repeat-l3h2#1,26307245,BLIND,7766384,NaN,complete,NaN,63bdb64bc7338fb4af0e3822,computer,Desktop or Laptop,Chromium OS 15183.69.0,Chrome 108.0.0.0,1536x864,1536x864,Start of Day 2,SLS,90,B,NaN,NaN,NaN,Pass,End of Day 1,Pass,NaN,Pass,NaN,Pass,NaN,Start of Day 2,schedule_B,schedule_B,28,14,1,Screen 1,Zone1,continue_button,702.5,NaN,NaN,,NaN,0,1,0,NaN,NaN,NaN,NaN,NaN,trial_left,blueBox.png,greenBox.png,blueBox.png,al2_uncon.png,48,27,NaN,NaN,0.85,0.15,1,0,0,0,Stable,Stable,3.824,1.634,0.992,2.244,inexpert
135,1673378916318,10/01/2023 19:28:36,1673378916154,0,10/01/2023 19:28:36,111483,5,task-rbyw,repeat-u7ds#1->-repeat-l3h2#1,26307245,BLIND,7766384,NaN,complete,NaN,63bdb64bc7338fb4af0e3822,computer,Desktop or Laptop,Chromium OS 15183.69.0,Chrome 108.0.0.0,1536x864,1536x864,Start of Day 2,SLS,90,B,NaN,NaN,NaN,Pass,End of Day 1,Pass,NaN,Pass,NaN,Pass,NaN,Start of Day 2,schedule_B,schedule_B,28,14,2,individual,Zone4,timelimit_screen,999.641999999993,NaN,NaN,,NaN,0,1,0,NaN,NaN,1,NaN,NaN,trial_left,blueBox.png,greenBox.png,blueBox.png,al2_uncon.png,48,27,NaN,NaN,0.85,0.15,1,0,0,0,Stable,Stable,3.824,1.634,0.992,2.244,inexpert
136,1673378917751,10/01/2023 19:28:37,1673378917573,0,10/01/2023 19:28:37,111483,5,task-rbyw,repeat-u7ds#1->-repeat-l3h2#1,26307245,BLIND,7766384,NaN,complete,NaN,63bdb64bc7338fb4af0e3822,computer,Desktop or Laptop,Chromium OS 15183.69.0,Chrome 108.0.0.0,1536x864,1536x864,Start of Day 2,SLS,90,B,NaN,NaN,NaN,Pass,End of Day 1,Pass,NaN,Pass,NaN,Pass,NaN,Start of Day 2,schedule_B,schedule_B,28,14,3,offer,bluebox,response_button_image,1400.5,NaN,NaN,blueBox.png,1,1,0,0,NaN,NaN,NaN,NaN,NaN,trial_left,blueBox.png,greenBox.png,blueBox.png,al2_uncon.png,48,27,NaN,NaN,0.85,0.15,1,0,0,0,Stable,Stable,3.824,1.634,0.992,2.244,inexpert
137,1673378919747,10/01/2023 19:28:39,1673378919571,0,10/01/2023 19:28:39,111483,5,task-rbyw,repeat-u7ds#1->-repeat-l3h2#1,26307245,BLIND,7766384,NaN,complete,NaN,63bdb64bc7338fb4af0e3822,computer,Desktop or Laptop,Chromium OS 15183.69.0,Chrome 108.0.0.0,1536x864,1536x864,Start of Day 2,SLS,90,B,NaN,NaN,NaN,Pass,End of Day 1,Pass,NaN,Pass,NaN,Pass,NaN,Start of Day 2,schedule_B,schedule_B,28,14,5,feedback_r,Zone7,timelimit_screen,1999.288,NaN,NaN,,NaN,0,1,0,NaN,NaN,1,NaN,NaN,trial_left,blueBox.png,greenBox.png,blueBox.png,al2_uncon.png,48,27,NaN,NaN,0.85,0.15,1,0,0,0,Stable,Stable,3.824,1.634,0.992,2.244,inexpert
138,1673378919880,10/01/2023 19:28:39,1673378919720,0,10/01/2023 19:28:39,111483,5,task-rbyw,repeat-u7ds#1->-repeat-l3h2#1,26307245,BLIND,7766384,NaN,complete,NaN,63bdb64bc7338fb4af0e3822,computer,Desktop or Laptop,Chromium OS 15183.69.0,Chrome 108.0.0.0,1536x864,1536x864,Start of Day 2,SLS,90,B,NaN,NaN,NaN,Pass,End of Day 1,Pass,NaN,Pass,NaN,Pass,NaN,Start of Day 2,schedule_B,schedule_B,28,14,6,end,Zone1,timelimit_screen,150.067999999999,NaN,NaN,,NaN,0,1,0,NaN,NaN,1,NaN,NaN,trial_left,blueBox.png,greenBox.png,blueBox.png,al2_uncon.png,48,27,NaN,NaN,0.85,0.15,1,0,0,0,Stable,Stable,3.824,1.634,0.992,2.244,inexpert
139,1673378920958,10/01/2023 19:28:40,1673378920790,0,10/01/2023 19:28:40,111483,5,task-rbyw,repeat-u7ds#1->-repeat-l3h2#1,26307245,BLIND,7766384,NaN,complete,NaN,63bdb64bc7338fb4af0e3822,computer,Desktop or Laptop,Chromium OS 15183.69.0,Chrome 108.0.0.0,1536x864,1536x864,Start of Day 2,SLS,90,B,NaN,NaN,NaN,Pass,End of Day 1,Pass,NaN,Pass,NaN,Pass,NaN,Start of Day 2,schedule_B,schedule_B,29,14,1,Screen 1,Zone1,continue_button,1033,NaN,NaN,,NaN,0,1,0,NaN,NaN,NaN,NaN,NaN,trial_right,blueBox.png,blueBox.png,greenBox.png,al2_uncon.png,49,28,NaN,NaN,0.85,0.15,1,0,0,1,Stable,Stable,2.84,1.937,1.723,2.815,inexpert
140,1673378921955,10/01/2023 19:28:41,1673378921787,0,10/01/2023 19:28:41,111483,5,task-rbyw,repeat-u7ds#1->-repeat-l3h2#1,26307245,BLIND,7766384,NaN,complete,NaN,63bdb64bc7338fb4af0e3822,computer,Desktop or Laptop,Chromium OS 15183.69.0,Chrome 108.0.0.0,1536x864,1536x864,Start of Day 2,SLS,90,B,NaN,NaN,NaN,Pass,End of Day 1,Pass,NaN,Pass,NaN,Pass,NaN,Start of Day 2,schedule_B,schedule_B,29,14,2,individual,Zone4,timelimit_screen,999.612999999983,NaN,NaN,,NaN,0,1,0,NaN,NaN,1,NaN,NaN,trial_right,blueBox.png,blueBox.png,greenBox.png,al2_uncon.png,49,28,NaN,NaN,0.85,0.15,1,0,0,1,Stable,Stable,2.84,1.937,1.723,2.815,inexpert
141,1673378923042,10/01/2023 19:28:43,1673378922877,0,10/01/2023 19:28:42,111483,5,task-rbyw,repeat-u7ds#1->-repeat-l3h2#1,26307245,BLIND,7766384,NaN,complete,NaN,63bdb64bc7338fb4af0e3822,computer,Desktop or Laptop,Chromium OS 15183.69.0,Chrome 108.0.0.0,1536x864,1536x864,Start of Day 2,SLS,90,B,NaN,NaN,NaN,Pass,End of Day 1,Pass,NaN,Pass,NaN,Pass,NaN,Start of Day 2,schedule_B,schedule_B,29,14,3,offer,Zone2,response_button_image,1068.30000001192,NaN,NaN,blueBox.png,1,1,0,0,NaN,NaN,NaN,NaN,NaN,trial_right,blueBox.png,blueBox.png,greenBox.png,al2_uncon.png,49,28,NaN,NaN,0.85,0.15,1,0,0,1,Stable,Stable,2.84,1.937,1.723,2.815,inexpert
142,1673378925176,10/01/2023 19:28:45,1673378924868,0,10/01/2023 19:28:44,111483,5,task-rbyw,repeat-u7ds#1->-repeat-l3h2#1,26307245,BLIND,7766384,NaN,complete,NaN,63bdb64bc7338fb4af0e3822,computer,Desktop or Laptop,Chromium OS 15183.69.0,Chrome 108.0.0.0,1536x864,1536x864,Start of Day 2,SLS,90,B,NaN,NaN,NaN,Pass,End of Day 1,Pass,NaN,Pass,NaN,Pass,NaN,Start of Day 2,schedule_B,schedule_B,29,14,4,feedback_l,Zone7,timelimit_screen,1999.269,NaN,NaN,,NaN,0,1,0,NaN,NaN,1,NaN,NaN,trial_right,blueBox.png,blueBox.png,greenBox.png,al2_uncon.png,49,28,NaN,NaN,0.85,0.15,1,0,0,1,Stable,Stable,2.84,1.937,1.723,2.815,inexpert
143,1673378925273,10/01/2023 19:28:45,1673378925018,0,10/01/2023 19:28:45,111483,5,task-rbyw,repeat-u7ds#1->-repeat-l3h2#1,26307245,BLIND,7766384,NaN,complete,NaN,63bdb64bc7338fb4af0e3822,computer,Desktop or Laptop,Chromium OS 15183.69.0,Chrome 108.0.0.0,1536x864,1536x864,Start of Day 2,SLS,90,B,NaN,NaN,NaN,Pass,End of Day 1,Pass,NaN,Pass,NaN,Pass,NaN,Start of Day 2,schedule_B,schedule_B,29,14,6,end,Zone1,timelimit_screen,150.062000000005,NaN,NaN,,NaN,0,1,0,NaN,NaN,1,NaN,NaN,trial_right,blueBox.png,blueBox.png,greenBox.png,al2_uncon.png,49,28,NaN,NaN,0.85,0.15,1,0,0,1,Stable,Stable,2.84,1.937,1.723,2.815,inexpert
144,1673378926006,10/01/2023 19:28:46,1673378925844,0,10/01/2023 19:28:45,111483,5,task-rbyw,repeat-u7ds#1->-repeat-l3h2#1,26307245,BLIND,7766384,NaN,complete,NaN,63bdb64bc7338fb4af0e3822,computer,Desktop or Laptop,Chromium OS 15183.69.0,Chrome 108.0.0.0,1536x864,1536x864,Start of Day 2,SLS,90,B,NaN,NaN,NaN,Pass,End of Day 1,Pass,NaN,Pass,NaN,Pass,NaN,Start of Day 2,schedule_B,schedule_B,30,15,1,Screen 1,Zone1,continue_button,795.399999991059,NaN,NaN,,NaN,0,1,0,NaN,NaN,NaN,NaN,NaN,trial_right,blueBox.png,blueBox.png,greenBox.png,al2_uncon.png,50,29,NaN,NaN,0.85,0.15,1,0,0,1,Stable,Stable,2.941,1.71,0.664,1.336,inexpert
145,1673378926996,10/01/2023 19:28:46,1673378926834,0,10/01/2023 19:28:46,111483,5,task-rbyw,repeat-u7ds#1->-repeat-l3h2#1,26307245,BLIND,7766384,NaN,complete,NaN,63bdb64bc7338fb4af0e3822,computer,Desktop or Laptop,Chromium OS 15183.69.0,Chrome 108.0.0.0,1536x864,1536x864,Start of Day 2,SLS,90,B,NaN,NaN,NaN,Pass,End of Day 1,Pass,NaN,Pass,NaN,Pass,NaN,Start of Day 2,schedule_B,schedule_B,30,15,2,individual,Zone4,timelimit_screen,999.603999999992,NaN,NaN,,NaN,0,1,0,NaN,NaN,1,NaN,NaN,trial_right,blueBox.png,blueBox.png,greenBox.png,al2_uncon.png,50,29,NaN,NaN,0.85,0.15,1,0,0,1,Stable,Stable,2.941,1.71,0.664,1.336,inexpert
146,1673378928045,10/01/2023 19:28:48,1673378927885,0,10/01/2023 19:28:47,111483,5,task-rbyw,repeat-u7ds#1->-repeat-l3h2#1,26307245,BLIND,7766384,NaN,complete,NaN,63bdb64bc7338fb4af0e3822,computer,Desktop or Laptop,Chromium OS 15183.69.0,Chrome 108.0.0.0,1536x864,1536x864,Start of Day 2,SLS,90,B,NaN,NaN,NaN,Pass,End of Day 1,Pass,NaN,Pass,NaN,Pass,NaN,Start of Day 2,schedule_B,schedule_B,30,15,3,offer,Zone2,response_button_image,1030.29999999702,NaN,NaN,blueBox.png,1,1,0,0,NaN,NaN,NaN,NaN,NaN,trial_right,blueBox.png,blueBox.png,greenBox.png,al2_uncon.png,50,29,NaN,NaN,0.85,0.15,1,0,0,1,Stable,Stable,2.941,1.71,0.664,1.336,inexpert
147,1673378930034,10/01/2023 19:28:50,1673378929867,0,10/01/2023 19:28:49,111483,5,task-rbyw,repeat-u7ds#1->-repeat-l3h2#1,26307245,BLIND,7766384,NaN,complete,NaN,63bdb64bc7338fb4af0e3822,computer,Desktop or Laptop,Chromium OS 15183.69.0,Chrome 108.0.0.0,1536x864,1536x864,Start of Day 2,SLS,90,B,NaN,NaN,NaN,Pass,End of Day 1,Pass,NaN,Pass,NaN,Pass,NaN,Start of Day 2,schedule_B,schedule_B,30,15,4,feedback_l,Zone7,timelimit_screen,1999.25700000001,NaN,NaN,,NaN,0,1,0,NaN,NaN,1,NaN,NaN,trial_right,blueBox.png,blueBox.png,greenBox.png,al2_uncon.png,50,29,NaN,NaN,0.85,0.15,1,0,0,1,Stable,Stable,2.941,1.71,0.664,1.336,inexpert
148,1673378930211,10/01/2023 19:28:50,1673378930017,0,10/01/2023 19:28:50,111483,5,task-rbyw,repeat-u7ds#1->-repeat-l3h2#1,26307245,BLIND,7766384,NaN,complete,NaN,63bdb64bc7338fb4af0e3822,computer,Desktop or Laptop,Chromium OS 15183.69.0,Chrome 108.0.0.0,1536x864,1536x864,Start of Day 2,SLS,90,B,NaN,NaN,NaN,Pass,End of Day 1,Pass,NaN,Pass,NaN,Pass,NaN,Start of Day 2,schedule_B,schedule_B,30,15,6,end,Zone1,timelimit_screen,150.065000000002,NaN,NaN,,NaN,0,1,0,NaN,NaN,1,NaN,NaN,trial_right,blueBox.png,blueBox.png,greenBox.png,al2_uncon.png,50,29,NaN,NaN,0.85,0.15,1,0,0,1,Stable,Stable,2.941,1.71,0.664,1.336,inexpert
149,1673378930902,10/01/2023 19:28:50,1673378930740,0,10/01/2023 19:28:50,111483,5,task-rbyw,repeat-u7ds#1->-repeat-l3h2#1,26307245,BLIND,7766384,NaN,complete,NaN,63bdb64bc7338fb4af0e3822,computer,Desktop or Laptop,Chromium OS 15183.69.0,Chrome 108.0.0.0,1536x864,1536x864,Start of Day 2,SLS,90,B,NaN,NaN,NaN,Pass,End of Day 1,Pass,NaN,Pass,NaN,Pass,NaN,Start of Day 2,schedule_B,schedule_B,31,15,1,Screen 1,Zone1,continue_button,692.79999999702,NaN,NaN,,NaN,0,1,0,NaN,NaN,NaN,NaN,NaN,trial_left,blueBox.png,greenBox.png,blueBox.png,al2_uncon.png,61,30,NaN,NaN,0.85,0.15,1,0,0,0,Stable,Stable,2.79,1.735,0.601,2.345,inexpert
150,1673378931895,10/01/2023 19:28:51,1673378931733,0,10/01/2023 19:28:51,111483,5,task-rbyw,repeat-u7ds#1->-repeat-l3h2#1,26307245,BLIND,7766384,NaN,complete,NaN,63bdb64bc7338fb4af0e3822,computer,Desktop or Laptop,Chromium OS 15183.69.0,Chrome 108.0.0.0,1536x864,1536x864,Start of Day 2,SLS,90,B,NaN,NaN,NaN,Pass,End of Day 1,Pass,NaN,Pass,NaN,Pass,NaN,Start of Day 2,schedule_B,schedule_B,31,15,2,individual,Zone4,timelimit_screen,999.629000000015,NaN,NaN,,NaN,0,1,0,NaN,NaN,1,NaN,NaN,trial_left,blueBox.png,greenBox.png,blueBox.png,al2_uncon.png,61,30,NaN,NaN,0.85,0.15,1,0,0,0,Stable,Stable,2.79,1.735,0.601,2.345,inexpert
151,1673378932904,10/01/2023 19:28:52,1673378932741,0,10/01/2023 19:28:52,111483,5,task-rbyw,repeat-u7ds#1->-repeat-l3h2#1,26307245,BLIND,7766384,NaN,complete,NaN,63bdb64bc7338fb4af0e3822,computer,Desktop or Laptop,Chromium OS 15183.69.0,Chrome 108.0.0.0,1536x864,1536x864,Start of Day 2,SLS,90,B,NaN,NaN,NaN,Pass,End of Day 1,Pass,NaN,Pass,NaN,Pass,NaN,Start of Day 2,schedule_B,schedule_B,31,15,3,offer,bluebox,response_button_image,988.79999999702,NaN,NaN,blueBox.png,1,1,0,0,NaN,NaN,NaN,NaN,NaN,trial_left,blueBox.png,greenBox.png,blueBox.png,al2_uncon.png,61,30,NaN,NaN,0.85,0.15,1,0,0,0,Stable,Stable,2.79,1.735,0.601,2.345,inexpert
152,1673378934908,10/01/2023 19:28:54,1673378934731,0,10/01/2023 19:28:54,111483,5,task-rbyw,repeat-u7ds#1->-repeat-l3h2#1,26307245,BLIND,7766384,NaN,complete,NaN,63bdb64bc7338fb4af0e3822,computer,Desktop or Laptop,Chromium OS 15183.69.0,Chrome 108.0.0.0,1536x864,1536x864,Start of Day 2,SLS,90,B,NaN,NaN,NaN,Pass,End of Day 1,Pass,NaN,Pass,NaN,Pass,NaN,Start of Day 2,schedule_B,schedule_B,31,15,5,feedback_r,Zone7,timelimit_screen,1999.269,NaN,NaN,,NaN,0,1,0,NaN,NaN,1,NaN,NaN,trial_left,blueBox.png,greenBox.png,blueBox.png,al2_uncon.png,61,30,NaN,NaN,0.85,0.15,1,0,0,0,Stable,Stable,2.79,1.735,0.601,2.345,inexpert
153,1673378935093,10/01/2023 19:28:55,1673378934881,0,10/01/2023 19:28:54,111483,5,task-rbyw,repeat-u7ds#1->-repeat-l3h2#1,26307245,BLIND,7766384,NaN,complete,NaN,63bdb64bc7338fb4af0e3822,computer,Desktop or Laptop,Chromium OS 15183.69.0,Chrome 108.0.0.0,1536x864,1536x864,Start of Day 2,SLS,90,B,NaN,NaN,NaN,Pass,End of Day 1,Pass,NaN,Pass,NaN,Pass,NaN,Start of Day 2,schedule_B,schedule_B,31,15,6,end,Zone1,timelimit_screen,150.069000000018,NaN,NaN,,NaN,0,1,0,NaN,NaN,1,NaN,NaN,trial_left,blueBox.png,greenBox.png,blueBox.png,al2_uncon.png,61,30,NaN,NaN,0.85,0.15,1,0,0,0,Stable,Stable,2.79,1.735,0.601,2.345,inexpert
154,1673378936337,10/01/2023 19:28:56,1673378936006,0,10/01/2023 19:28:56,111483,5,task-rbyw,repeat-u7ds#1->-repeat-l3h2#1,26307245,BLIND,7766384,NaN,complete,NaN,63bdb64bc7338fb4af0e3822,computer,Desktop or Laptop,Chromium OS 15183.69.0,Chrome 108.0.0.0,1536x864,1536x864,Start of Day 2,SLS,90,B,NaN,NaN,NaN,Pass,End of Day 1,Pass,NaN,Pass,NaN,Pass,NaN,Start of Day 2,schedule_B,schedule_B,32,16,1,Screen 1,Zone1,continue_button,1093.90000000596,NaN,NaN,,NaN,0,1,0,NaN,NaN,NaN,NaN,NaN,trial_right,blueBox.png,greenBox.png,blueBox.png,al2_uncon.png,62,31,NaN,NaN,0.85,0.85,1,1,1,0,Volatile,Volatile,2.538,1.672,1.143,1.555,inexpert
155,1673378937159,10/01/2023 19:28:57,1673378936998,0,10/01/2023 19:28:56,111483,5,task-rbyw,repeat-u7ds#1->-repeat-l3h2#1,26307245,BLIND,7766384,NaN,complete,NaN,63bdb64bc7338fb4af0e3822,computer,Desktop or Laptop,Chromium OS 15183.69.0,Chrome 108.0.0.0,1536x864,1536x864,Start of Day 2,SLS,90,B,NaN,NaN,NaN,Pass,End of Day 1,Pass,NaN,Pass,NaN,Pass,NaN,Start of Day 2,schedule_B,schedule_B,32,16,2,individual,Zone4,timelimit_screen,999.604999999981,NaN,NaN,,NaN,0,1,0,NaN,NaN,1,NaN,NaN,trial_right,blueBox.png,greenBox.png,blueBox.png,al2_uncon.png,62,31,NaN,NaN,0.85,0.85,1,1,1,0,Volatile,Volatile,2.538,1.672,1.143,1.555,inexpert
156,1673378944327,10/01/2023 19:29:04,1673378944157,0,10/01/2023 19:29:04,111483,5,task-rbyw,repeat-u7ds#1->-repeat-l3h2#1,26307245,BLIND,7766384,NaN,complete,NaN,63bdb64bc7338fb4af0e3822,computer,Desktop or Laptop,Chromium OS 15183.69.0,Chrome 108.0.0.0,1536x864,1536x864,Start of Day 2,SLS,90,B,NaN,NaN,NaN,Pass,End of Day 1,Pass,NaN,Pass,NaN,Pass,NaN,Start of Day 2,schedule_B,schedule_B,32,16,3,offer,Zone2,response_button_image,7141.59999999404,NaN,NaN,greenBox.png,1,0,1,0,NaN,NaN,NaN,NaN,NaN,trial_right,blueBox.png,greenBox.png,blueBox.png,al2_uncon.png,62,31,NaN,NaN,0.85,0.85,1,1,1,0,Volatile,Volatile,2.538,1.672,1.143,1.555,inexpert
157,1673378946475,10/01/2023 19:29:06,1673378946144,0,10/01/2023 19:29:06,111483,5,task-rbyw,repeat-u7ds#1->-repeat-l3h2#1,26307245,BLIND,7766384,NaN,complete,NaN,63bdb64bc7338fb4af0e3822,computer,Desktop or Laptop,Chromium OS 15183.69.0,Chrome 108.0.0.0,1536x864,1536x864,Start of Day 2,SLS,90,B,NaN,NaN,NaN,Pass,End of Day 1,Pass,NaN,Pass,NaN,Pass,NaN,Start of Day 2,schedule_B,schedule_B,32,16,4,feedback_l,Zone7,timelimit_screen,1999.704,NaN,NaN,,NaN,0,1,0,NaN,NaN,1,NaN,NaN,trial_right,blueBox.png,greenBox.png,blueBox.png,al2_uncon.png,62,31,NaN,NaN,0.85,0.85,1,1,1,0,Volatile,Volatile,2.538,1.672,1.143,1.555,inexpert
158,1673378946582,10/01/2023 19:29:06,1673378946295,0,10/01/2023 19:29:06,111483,5,task-rbyw,repeat-u7ds#1->-repeat-l3h2#1,26307245,BLIND,7766384,NaN,complete,NaN,63bdb64bc7338fb4af0e3822,computer,Desktop or Laptop,Chromium OS 15183.69.0,Chrome 108.0.0.0,1536x864,1536x864,Start of Day 2,SLS,90,B,NaN,NaN,NaN,Pass,End of Day 1,Pass,NaN,Pass,NaN,Pass,NaN,Start of Day 2,schedule_B,schedule_B,32,16,6,end,Zone1,timelimit_screen,150.00900000002,NaN,NaN,,NaN,0,1,0,NaN,NaN,1,NaN,NaN,trial_right,blueBox.png,greenBox.png,blueBox.png,al2_uncon.png,62,31,NaN,NaN,0.85,0.85,1,1,1,0,Volatile,Volatile,2.538,1.672,1.143,1.555,inexpert
