EventIndex,UTCTimestamp,UTCDate,LocalTimestamp,LocalTimezone,LocalDate,ExperimentID,ExperimentVersion,TreeNodeKey,RepeatKey,ScheduleID,ParticipantPublicID,ParticipantPrivateID,ParticipantStartingGroup,ParticipantStatus,ParticipantCompletionCode,ParticipantExternalSessionID,ParticipantDeviceType,ParticipantDevice,ParticipantOS,ParticipantBrowser,ParticipantMonitorSize,ParticipantViewportSize,Checkpoint,TaskName,TaskVersion,randomiser_6z9f,branch_kxy7,checkpoint_tqwf,branch_rtog,branch_7dgx,checkpoint_mqen,branch_yx2c,branch_3n8o,branch_f1s6,branch_x6l7,branch_21hs,checkpoint_iz27,checkpoint_sry6,Spreadsheet,SpreadsheetName,SpreadsheetRow,TrialNumber,ScreenNumber,ScreenName,ZoneName,ZoneType,ReactionTime,ReactionOnset,ResponseType,Response,Attempt,Correct,Incorrect,Dishonest,XCoordinate,YCoordinate,TimedOut,randomise_blocks,randomise_trials,display,ANSWER,left_button,right_button,advice,orderno,trialno,ShowProgressBar,image,prob_blue_corr,prob_group_corr,corr_ans,group_corr,group_choice,blue_pos,indiv_vol,soc_vol,ITI_1,ITI_2,ITI_3,ITI_4,condition
1,1673380933710,10/01/2023 20:02:13,1673380935324,0,10/01/2023 20:02:15,111483,5,task-xjip,repeat-7g8d#1->-repeat-38fk#1,26308124,BLIND,7766409,NaN,complete,NaN,63c019471dfc66664bd1e86e,computer,Desktop or Laptop,Windows 10,Chrome 108.0.0.0,1366x768,1366x768,Start of Day 2,SLS,90,A,Pass,End of Day 1,Pass,NaN,NaN,NaN,Pass,NaN,Pass,NaN,Start of Day 2,NaN,schedule_A,,NaN,NaN,NaN,,,,NaN,NaN,NaN,,NaN,0,1,0,NaN,NaN,NaN,NaN,NaN,,,,,,NaN,NaN,NaN,NaN,NaN,NaN,NaN,NaN,NaN,NaN,,,NaN,NaN,NaN,NaN,
2,1673381111431,10/01/2023 20:05:11,1673381113068,0,10/01/2023 20:05:13,111483,5,task-xjip,repeat-7g8d#1->-repeat-38fk#1,26308124,BLIND,7766409,NaN,complete,NaN,63c019471dfc66664bd1e86e,computer,Desktop or Laptop,Windows 10,Chrome 108.0.0.0,1366x768,1366x768,Start of Day 2,SLS,90,A,Pass,End of Day 1,Pass,NaN,NaN,NaN,Pass,NaN,Pass,NaN,Start of Day 2,NaN,schedule_A,schedule_A,1,1,1,Screen 1,Zone1,continue_button,176381.099999964,NaN,NaN,,NaN,0,1,0,NaN,NaN,NaN,NaN,NaN,getReady,,,,,1,NaN,NaN,NaN,NaN,NaN,NaN,NaN,NaN,NaN,,,NaN,NaN,NaN,NaN,
3,1673381238383,10/01/2023 20:07:18,1673381240011,0,10/01/2023 20:07:20,111483,5,task-xjip,repeat-7g8d#1->-repeat-38fk#1,26308124,BLIND,7766409,NaN,complete,NaN,63c019471dfc66664bd1e86e,computer,Desktop or Laptop,Windows 10,Chrome 108.0.0.0,1366x768,1366x768,Start of Day 2,SLS,90,A,Pass,End of Day 1,Pass,NaN,NaN,NaN,Pass,NaN,Pass,NaN,Start of Day 2,NaN,schedule_A,schedule_A,1,1,2,Screen 2,Zone1,continue_button,126919,NaN,NaN,,NaN,0,1,0,NaN,NaN,NaN,NaN,NaN,getReady,,,,,1,NaN,NaN,NaN,NaN,NaN,NaN,NaN,NaN,NaN,,,NaN,NaN,NaN,NaN,
4,1673381241091,10/01/2023 20:07:21,1673381242846,0,10/01/2023 20:07:22,111483,5,task-xjip,repeat-7g8d#1->-repeat-38fk#1,26308124,BLIND,7766409,NaN,complete,NaN,63c019471dfc66664bd1e86e,computer,Desktop or Laptop,Windows 10,Chrome 108.0.0.0,1366x768,1366x768,Start of Day 2,SLS,90,A,Pass,End of Day 1,Pass,NaN,NaN,NaN,Pass,NaN,Pass,NaN,Start of Day 2,NaN,schedule_A,schedule_A,2,1,1,Screen 1,Zone1,continue_button,2740.60000002384,NaN,NaN,,NaN,0,1,0,NaN,NaN,NaN,NaN,NaN,trial_right,redBox.png,yellowBox.png,redBox.png,al1_con.png,2,1,NaN,NaN,0.85,0.85,1,1,1,0,Volatile,Stable,3.471,0.525,1.66,2.529,expert
5,1673381242169,10/01/2023 20:07:22,1673381243844,0,10/01/2023 20:07:23,111483,5,task-xjip,repeat-7g8d#1->-repeat-38fk#1,26308124,BLIND,7766409,NaN,complete,NaN,63c019471dfc66664bd1e86e,computer,Desktop or Laptop,Windows 10,Chrome 108.0.0.0,1366x768,1366x768,Start of Day 2,SLS,90,A,Pass,End of Day 1,Pass,NaN,NaN,NaN,Pass,NaN,Pass,NaN,Start of Day 2,NaN,schedule_A,schedule_A,2,1,2,individual,Zone4,timelimit_screen,1000.51999999996,NaN,NaN,,NaN,0,1,0,NaN,NaN,1,NaN,NaN,trial_right,redBox.png,yellowBox.png,redBox.png,al1_con.png,2,1,NaN,NaN,0.85,0.85,1,1,1,0,Volatile,Stable,3.471,0.525,1.66,2.529,expert
6,1673381243241,10/01/2023 20:07:23,1673381244962,0,10/01/2023 20:07:24,111483,5,task-xjip,repeat-7g8d#1->-repeat-38fk#1,26308124,BLIND,7766409,NaN,complete,NaN,63c019471dfc66664bd1e86e,computer,Desktop or Laptop,Windows 10,Chrome 108.0.0.0,1366x768,1366x768,Start of Day 2,SLS,90,A,Pass,End of Day 1,Pass,NaN,NaN,NaN,Pass,NaN,Pass,NaN,Start of Day 2,NaN,schedule_A,schedule_A,2,1,3,offer,Zone3,response_button_image,1069.09999996424,NaN,NaN,redBox.png,1,1,0,0,NaN,NaN,NaN,NaN,NaN,trial_right,redBox.png,yellowBox.png,redBox.png,al1_con.png,2,1,NaN,NaN,0.85,0.85,1,1,1,0,Volatile,Stable,3.471,0.525,1.66,2.529,expert
7,1673381245194,10/01/2023 20:07:25,1673381246953,0,10/01/2023 20:07:26,111483,5,task-xjip,repeat-7g8d#1->-repeat-38fk#1,26308124,BLIND,7766409,NaN,complete,NaN,63c019471dfc66664bd1e86e,computer,Desktop or Laptop,Windows 10,Chrome 108.0.0.0,1366x768,1366x768,Start of Day 2,SLS,90,A,Pass,End of Day 1,Pass,NaN,NaN,NaN,Pass,NaN,Pass,NaN,Start of Day 2,NaN,schedule_A,schedule_A,2,1,5,feedback_r,Zone7,timelimit_screen,2000.01799999998,NaN,NaN,,NaN,0,1,0,NaN,NaN,1,NaN,NaN,trial_right,redBox.png,yellowBox.png,redBox.png,al1_con.png,2,1,NaN,NaN,0.85,0.85,1,1,1,0,Volatile,Stable,3.471,0.525,1.66,2.529,expert
8,1673381245406,10/01/2023 20:07:25,1673381247104,0,10/01/2023 20:07:27,111483,5,task-xjip,repeat-7g8d#1->-repeat-38fk#1,26308124,BLIND,7766409,NaN,complete,NaN,63c019471dfc66664bd1e86e,computer,Desktop or Laptop,Windows 10,Chrome 108.0.0.0,1366x768,1366x768,Start of Day 2,SLS,90,A,Pass,End of Day 1,Pass,NaN,NaN,NaN,Pass,NaN,Pass,NaN,Start of Day 2,NaN,schedule_A,schedule_A,2,1,6,end,Zone1,timelimit_screen,149.880000000005,NaN,NaN,,NaN,0,1,0,NaN,NaN,1,NaN,NaN,trial_right,redBox.png,yellowBox.png,redBox.png,al1_con.png,2,1,NaN,NaN,0.85,0.85,1,1,1,0,Volatile,Stable,3.471,0.525,1.66,2.529,expert
9,1673381246780,10/01/2023 20:07:26,1673381248378,0,10/01/2023 20:07:28,111483,5,task-xjip,repeat-7g8d#1->-repeat-38fk#1,26308124,BLIND,7766409,NaN,complete,NaN,63c019471dfc66664bd1e86e,computer,Desktop or Laptop,Windows 10,Chrome 108.0.0.0,1366x768,1366x768,Start of Day 2,SLS,90,A,Pass,End of Day 1,Pass,NaN,NaN,NaN,Pass,NaN,Pass,NaN,Start of Day 2,NaN,schedule_A,schedule_A,3,1,1,Screen 1,Zone1,continue_button,1202.10000002384,NaN,NaN,,NaN,0,1,0,NaN,NaN,NaN,NaN,NaN,trial_left,redBox.png,redBox.png,yellowBox.png,al1_con.png,3,2,NaN,NaN,0.85,0.85,1,1,1,1,Volatile,Stable,1.782,1.168,1.168,2.462,expert
10,1673381247613,10/01/2023 20:07:27,1673381249371,0,10/01/2023 20:07:29,111483,5,task-xjip,repeat-7g8d#1->-repeat-38fk#1,26308124,BLIND,7766409,NaN,complete,NaN,63c019471dfc66664bd1e86e,computer,Desktop or Laptop,Windows 10,Chrome 108.0.0.0,1366x768,1366x768,Start of Day 2,SLS,90,A,Pass,End of Day 1,Pass,NaN,NaN,NaN,Pass,NaN,Pass,NaN,Start of Day 2,NaN,schedule_A,schedule_A,3,1,2,individual,Zone4,timelimit_screen,999.853000000003,NaN,NaN,,NaN,0,1,0,NaN,NaN,1,NaN,NaN,trial_left,redBox.png,redBox.png,yellowBox.png,al1_con.png,3,2,NaN,NaN,0.85,0.85,1,1,1,1,Volatile,Stable,1.782,1.168,1.168,2.462,expert
11,1673381248705,10/01/2023 20:07:28,1673381250428,0,10/01/2023 20:07:30,111483,5,task-xjip,repeat-7g8d#1->-repeat-38fk#1,26308124,BLIND,7766409,NaN,complete,NaN,63c019471dfc66664bd1e86e,computer,Desktop or Laptop,Windows 10,Chrome 108.0.0.0,1366x768,1366x768,Start of Day 2,SLS,90,A,Pass,End of Day 1,Pass,NaN,NaN,NaN,Pass,NaN,Pass,NaN,Start of Day 2,NaN,schedule_A,schedule_A,3,1,3,offer,Zone2,response_button_image,1015.10000002384,NaN,NaN,redBox.png,1,1,0,0,NaN,NaN,NaN,NaN,NaN,trial_left,redBox.png,redBox.png,yellowBox.png,al1_con.png,3,2,NaN,NaN,0.85,0.85,1,1,1,1,Volatile,Stable,1.782,1.168,1.168,2.462,expert
12,1673381250701,10/01/2023 20:07:30,1673381252420,0,10/01/2023 20:07:32,111483,5,task-xjip,repeat-7g8d#1->-repeat-38fk#1,26308124,BLIND,7766409,NaN,complete,NaN,63c019471dfc66664bd1e86e,computer,Desktop or Laptop,Windows 10,Chrome 108.0.0.0,1366x768,1366x768,Start of Day 2,SLS,90,A,Pass,End of Day 1,Pass,NaN,NaN,NaN,Pass,NaN,Pass,NaN,Start of Day 2,NaN,schedule_A,schedule_A,3,1,4,feedback_l,Zone7,timelimit_screen,1999.886,NaN,NaN,,NaN,0,1,0,NaN,NaN,1,NaN,NaN,trial_left,redBox.png,redBox.png,yellowBox.png,al1_con.png,3,2,NaN,NaN,0.85,0.85,1,1,1,1,Volatile,Stable,1.782,1.168,1.168,2.462,expert
13,1673381250812,10/01/2023 20:07:30,1673381252570,0,10/01/2023 20:07:32,111483,5,task-xjip,repeat-7g8d#1->-repeat-38fk#1,26308124,BLIND,7766409,NaN,complete,NaN,63c019471dfc66664bd1e86e,computer,Desktop or Laptop,Windows 10,Chrome 108.0.0.0,1366x768,1366x768,Start of Day 2,SLS,90,A,Pass,End of Day 1,Pass,NaN,NaN,NaN,Pass,NaN,Pass,NaN,Start of Day 2,NaN,schedule_A,schedule_A,3,1,6,end,Zone1,timelimit_screen,150.008000000031,NaN,NaN,,NaN,0,1,0,NaN,NaN,1,NaN,NaN,trial_left,redBox.png,redBox.png,yellowBox.png,al1_con.png,3,2,NaN,NaN,0.85,0.85,1,1,1,1,Volatile,Stable,1.782,1.168,1.168,2.462,expert
14,1673381251778,10/01/2023 20:07:31,1673381253441,0,10/01/2023 20:07:33,111483,5,task-xjip,repeat-7g8d#1->-repeat-38fk#1,26308124,BLIND,7766409,NaN,complete,NaN,63c019471dfc66664bd1e86e,computer,Desktop or Laptop,Windows 10,Chrome 108.0.0.0,1366x768,1366x768,Start of Day 2,SLS,90,A,Pass,End of Day 1,Pass,NaN,NaN,NaN,Pass,NaN,Pass,NaN,Start of Day 2,NaN,schedule_A,schedule_A,4,2,1,Screen 1,Zone1,continue_button,812.399999976158,NaN,NaN,,NaN,0,1,0,NaN,NaN,NaN,NaN,NaN,trial_right,redBox.png,yellowBox.png,redBox.png,al1_con.png,4,3,NaN,NaN,0.85,0.85,1,1,1,0,Volatile,Stable,1.983,1.181,0.538,1.588,expert
15,1673381252680,10/01/2023 20:07:32,1673381254427,0,10/01/2023 20:07:34,111483,5,task-xjip,repeat-7g8d#1->-repeat-38fk#1,26308124,BLIND,7766409,NaN,complete,NaN,63c019471dfc66664bd1e86e,computer,Desktop or Laptop,Windows 10,Chrome 108.0.0.0,1366x768,1366x768,Start of Day 2,SLS,90,A,Pass,End of Day 1,Pass,NaN,NaN,NaN,Pass,NaN,Pass,NaN,Start of Day 2,NaN,schedule_A,schedule_A,4,2,2,individual,Zone4,timelimit_screen,999.984999999986,NaN,NaN,,NaN,0,1,0,NaN,NaN,1,NaN,NaN,trial_right,redBox.png,yellowBox.png,redBox.png,al1_con.png,4,3,NaN,NaN,0.85,0.85,1,1,1,0,Volatile,Stable,1.983,1.181,0.538,1.588,expert
16,1673381253113,10/01/2023 20:07:33,1673381254844,0,10/01/2023 20:07:34,111483,5,task-xjip,repeat-7g8d#1->-repeat-38fk#1,26308124,BLIND,7766409,NaN,complete,NaN,63c019471dfc66664bd1e86e,computer,Desktop or Laptop,Windows 10,Chrome 108.0.0.0,1366x768,1366x768,Start of Day 2,SLS,90,A,Pass,End of Day 1,Pass,NaN,NaN,NaN,Pass,NaN,Pass,NaN,Start of Day 2,NaN,schedule_A,schedule_A,4,2,3,offer,Zone3,response_button_image,384.199999988079,NaN,NaN,redBox.png,1,1,0,0,NaN,NaN,NaN,NaN,NaN,trial_right,redBox.png,yellowBox.png,redBox.png,al1_con.png,4,3,NaN,NaN,0.85,0.85,1,1,1,0,Volatile,Stable,1.983,1.181,0.538,1.588,expert
17,1673381255089,10/01/2023 20:07:35,1673381256837,0,10/01/2023 20:07:36,111483,5,task-xjip,repeat-7g8d#1->-repeat-38fk#1,26308124,BLIND,7766409,NaN,complete,NaN,63c019471dfc66664bd1e86e,computer,Desktop or Laptop,Windows 10,Chrome 108.0.0.0,1366x768,1366x768,Start of Day 2,SLS,90,A,Pass,End of Day 1,Pass,NaN,NaN,NaN,Pass,NaN,Pass,NaN,Start of Day 2,NaN,schedule_A,schedule_A,4,2,5,feedback_r,Zone7,timelimit_screen,2000.06199999998,NaN,NaN,,NaN,0,1,0,NaN,NaN,1,NaN,NaN,trial_right,redBox.png,yellowBox.png,redBox.png,al1_con.png,4,3,NaN,NaN,0.85,0.85,1,1,1,0,Volatile,Stable,1.983,1.181,0.538,1.588,expert
18,1673381255240,10/01/2023 20:07:35,1673381256986,0,10/01/2023 20:07:36,111483,5,task-xjip,repeat-7g8d#1->-repeat-38fk#1,26308124,BLIND,7766409,NaN,complete,NaN,63c019471dfc66664bd1e86e,computer,Desktop or Laptop,Windows 10,Chrome 108.0.0.0,1366x768,1366x768,Start of Day 2,SLS,90,A,Pass,End of Day 1,Pass,NaN,NaN,NaN,Pass,NaN,Pass,NaN,Start of Day 2,NaN,schedule_A,schedule_A,4,2,6,end,Zone1,timelimit_screen,150.006000000052,NaN,NaN,,NaN,0,1,0,NaN,NaN,1,NaN,NaN,trial_right,redBox.png,yellowBox.png,redBox.png,al1_con.png,4,3,NaN,NaN,0.85,0.85,1,1,1,0,Volatile,Stable,1.983,1.181,0.538,1.588,expert
19,1673381256721,10/01/2023 20:07:36,1673381258326,0,10/01/2023 20:07:38,111483,5,task-xjip,repeat-7g8d#1->-repeat-38fk#1,26308124,BLIND,7766409,NaN,complete,NaN,63c019471dfc66664bd1e86e,computer,Desktop or Laptop,Windows 10,Chrome 108.0.0.0,1366x768,1366x768,Start of Day 2,SLS,90,A,Pass,End of Day 1,Pass,NaN,NaN,NaN,Pass,NaN,Pass,NaN,Start of Day 2,NaN,schedule_A,schedule_A,5,3,1,Screen 1,Zone1,continue_button,1247.69999998808,NaN,NaN,,NaN,0,1,0,NaN,NaN,NaN,NaN,NaN,trial_right,redBox.png,yellowBox.png,redBox.png,al1_con.png,5,4,NaN,NaN,0.85,0.85,1,1,1,0,Volatile,Stable,1.529,0.891,1.004,1,expert
20,1673381257584,10/01/2023 20:07:37,1673381259321,0,10/01/2023 20:07:39,111483,5,task-xjip,repeat-7g8d#1->-repeat-38fk#1,26308124,BLIND,7766409,NaN,complete,NaN,63c019471dfc66664bd1e86e,computer,Desktop or Laptop,Windows 10,Chrome 108.0.0.0,1366x768,1366x768,Start of Day 2,SLS,90,A,Pass,End of Day 1,Pass,NaN,NaN,NaN,Pass,NaN,Pass,NaN,Start of Day 2,NaN,schedule_A,schedule_A,5,3,2,individual,Zone4,timelimit_screen,999.94299999997,NaN,NaN,,NaN,0,1,0,NaN,NaN,1,NaN,NaN,trial_right,redBox.png,yellowBox.png,redBox.png,al1_con.png,5,4,NaN,NaN,0.85,0.85,1,1,1,0,Volatile,Stable,1.529,0.891,1.004,1,expert
21,1673381258215,10/01/2023 20:07:38,1673381259976,0,10/01/2023 20:07:39,111483,5,task-xjip,repeat-7g8d#1->-repeat-38fk#1,26308124,BLIND,7766409,NaN,complete,NaN,63c019471dfc66664bd1e86e,computer,Desktop or Laptop,Windows 10,Chrome 108.0.0.0,1366x768,1366x768,Start of Day 2,SLS,90,A,Pass,End of Day 1,Pass,NaN,NaN,NaN,Pass,NaN,Pass,NaN,Start of Day 2,NaN,schedule_A,schedule_A,5,3,3,offer,Zone3,response_button_image,609.800000011921,NaN,NaN,redBox.png,1,1,0,0,NaN,NaN,NaN,NaN,NaN,trial_right,redBox.png,yellowBox.png,redBox.png,al1_con.png,5,4,NaN,NaN,0.85,0.85,1,1,1,0,Volatile,Stable,1.529,0.891,1.004,1,expert
22,1673381260209,10/01/2023 20:07:40,1673381261969,0,10/01/2023 20:07:41,111483,5,task-xjip,repeat-7g8d#1->-repeat-38fk#1,26308124,BLIND,7766409,NaN,complete,NaN,63c019471dfc66664bd1e86e,computer,Desktop or Laptop,Windows 10,Chrome 108.0.0.0,1366x768,1366x768,Start of Day 2,SLS,90,A,Pass,End of Day 1,Pass,NaN,NaN,NaN,Pass,NaN,Pass,NaN,Start of Day 2,NaN,schedule_A,schedule_A,5,3,5,feedback_r,Zone7,timelimit_screen,1999.908,NaN,NaN,,NaN,0,1,0,NaN,NaN,1,NaN,NaN,trial_right,redBox.png,yellowBox.png,redBox.png,al1_con.png,5,4,NaN,NaN,0.85,0.85,1,1,1,0,Volatile,Stable,1.529,0.891,1.004,1,expert
23,1673381260357,10/01/2023 20:07:40,1673381262120,0,10/01/2023 20:07:42,111483,5,task-xjip,repeat-7g8d#1->-repeat-38fk#1,26308124,BLIND,7766409,NaN,complete,NaN,63c019471dfc66664bd1e86e,computer,Desktop or Laptop,Windows 10,Chrome 108.0.0.0,1366x768,1366x768,Start of Day 2,SLS,90,A,Pass,End of Day 1,Pass,NaN,NaN,NaN,Pass,NaN,Pass,NaN,Start of Day 2,NaN,schedule_A,schedule_A,5,3,6,end,Zone1,timelimit_screen,150.032999999996,NaN,NaN,,NaN,0,1,0,NaN,NaN,1,NaN,NaN,trial_right,redBox.png,yellowBox.png,redBox.png,al1_con.png,5,4,NaN,NaN,0.85,0.85,1,1,1,0,Volatile,Stable,1.529,0.891,1.004,1,expert
24,1673381520279,10/01/2023 20:12:00,1673381521921,0,10/01/2023 20:12:01,111483,5,task-xjip,repeat-7g8d#1->-repeat-38fk#1,26308124,BLIND,7766409,NaN,complete,NaN,63c019471dfc66664bd1e86e,computer,Desktop or Laptop,Windows 10,Chrome 108.0.0.0,1366x768,1366x768,Start of Day 2,SLS,90,A,Pass,End of Day 1,Pass,NaN,NaN,NaN,Pass,NaN,Pass,NaN,Start of Day 2,NaN,schedule_A,schedule_A,6,2,1,Screen 1,Zone1,continue_button,259748.600000024,NaN,NaN,,NaN,0,1,0,NaN,NaN,NaN,NaN,NaN,trial_left,redBox.png,redBox.png,yellowBox.png,al1_con.png,6,5,NaN,NaN,0.85,0.85,1,1,1,1,Volatile,Stable,1.832,1.118,0.752,1.79,expert
25,1673381521093,10/01/2023 20:12:01,1673381522861,0,10/01/2023 20:12:02,111483,5,task-xjip,repeat-7g8d#1->-repeat-38fk#1,26308124,BLIND,7766409,NaN,complete,NaN,63c019471dfc66664bd1e86e,computer,Desktop or Laptop,Windows 10,Chrome 108.0.0.0,1366x768,1366x768,Start of Day 2,SLS,90,A,Pass,End of Day 1,Pass,NaN,NaN,NaN,Pass,NaN,Pass,NaN,Start of Day 2,NaN,schedule_A,schedule_A,6,2,2,individual,Zone4,timelimit_screen,999.954999999958,NaN,NaN,,NaN,0,1,0,NaN,NaN,1,NaN,NaN,trial_left,redBox.png,redBox.png,yellowBox.png,al1_con.png,6,5,NaN,NaN,0.85,0.85,1,1,1,1,Volatile,Stable,1.832,1.118,0.752,1.79,expert
26,1673381521825,10/01/2023 20:12:01,1673381523597,0,10/01/2023 20:12:03,111483,5,task-xjip,repeat-7g8d#1->-repeat-38fk#1,26308124,BLIND,7766409,NaN,complete,NaN,63c019471dfc66664bd1e86e,computer,Desktop or Laptop,Windows 10,Chrome 108.0.0.0,1366x768,1366x768,Start of Day 2,SLS,90,A,Pass,End of Day 1,Pass,NaN,NaN,NaN,Pass,NaN,Pass,NaN,Start of Day 2,NaN,schedule_A,schedule_A,6,2,3,offer,Zone2,response_button_image,678.599999964237,NaN,NaN,redBox.png,1,1,0,0,NaN,NaN,NaN,NaN,NaN,trial_left,redBox.png,redBox.png,yellowBox.png,al1_con.png,6,5,NaN,NaN,0.85,0.85,1,1,1,1,Volatile,Stable,1.832,1.118,0.752,1.79,expert
27,1673381523812,10/01/2023 20:12:03,1673381525576,0,10/01/2023 20:12:05,111483,5,task-xjip,repeat-7g8d#1->-repeat-38fk#1,26308124,BLIND,7766409,NaN,complete,NaN,63c019471dfc66664bd1e86e,computer,Desktop or Laptop,Windows 10,Chrome 108.0.0.0,1366x768,1366x768,Start of Day 2,SLS,90,A,Pass,End of Day 1,Pass,NaN,NaN,NaN,Pass,NaN,Pass,NaN,Start of Day 2,NaN,schedule_A,schedule_A,6,2,4,feedback_l,Zone7,timelimit_screen,2000.04399999999,NaN,NaN,,NaN,0,1,0,NaN,NaN,1,NaN,NaN,trial_left,redBox.png,redBox.png,yellowBox.png,al1_con.png,6,5,NaN,NaN,0.85,0.85,1,1,1,1,Volatile,Stable,1.832,1.118,0.752,1.79,expert
28,1673381523959,10/01/2023 20:12:03,1673381525726,0,10/01/2023 20:12:05,111483,5,task-xjip,repeat-7g8d#1->-repeat-38fk#1,26308124,BLIND,7766409,NaN,complete,NaN,63c019471dfc66664bd1e86e,computer,Desktop or Laptop,Windows 10,Chrome 108.0.0.0,1366x768,1366x768,Start of Day 2,SLS,90,A,Pass,End of Day 1,Pass,NaN,NaN,NaN,Pass,NaN,Pass,NaN,Start of Day 2,NaN,schedule_A,schedule_A,6,2,6,end,Zone1,timelimit_screen,150.040000000037,NaN,NaN,,NaN,0,1,0,NaN,NaN,1,NaN,NaN,trial_left,redBox.png,redBox.png,yellowBox.png,al1_con.png,6,5,NaN,NaN,0.85,0.85,1,1,1,1,Volatile,Stable,1.832,1.118,0.752,1.79,expert
29,1673381527684,10/01/2023 20:12:07,1673381529339,0,10/01/2023 20:12:09,111483,5,task-xjip,repeat-7g8d#1->-repeat-38fk#1,26308124,BLIND,7766409,NaN,complete,NaN,63c019471dfc66664bd1e86e,computer,Desktop or Laptop,Windows 10,Chrome 108.0.0.0,1366x768,1366x768,Start of Day 2,SLS,90,A,Pass,End of Day 1,Pass,NaN,NaN,NaN,Pass,NaN,Pass,NaN,Start of Day 2,NaN,schedule_A,schedule_A,7,4,1,Screen 1,Zone1,continue_button,3553.70000004768,NaN,NaN,,NaN,0,1,0,NaN,NaN,NaN,NaN,NaN,trial_right,yellowBox.png,redBox.png,yellowBox.png,al1_con.png,7,6,NaN,NaN,0.15,0.85,0,1,0,1,Volatile,Stable,3.294,0.815,1.282,2.664,expert
30,1673381528581,10/01/2023 20:12:08,1673381530328,0,10/01/2023 20:12:10,111483,5,task-xjip,repeat-7g8d#1->-repeat-38fk#1,26308124,BLIND,7766409,NaN,complete,NaN,63c019471dfc66664bd1e86e,computer,Desktop or Laptop,Windows 10,Chrome 108.0.0.0,1366x768,1366x768,Start of Day 2,SLS,90,A,Pass,End of Day 1,Pass,NaN,NaN,NaN,Pass,NaN,Pass,NaN,Start of Day 2,NaN,schedule_A,schedule_A,7,4,2,individual,Zone4,timelimit_screen,999.954000000027,NaN,NaN,,NaN,0,1,0,NaN,NaN,1,NaN,NaN,trial_right,yellowBox.png,redBox.png,yellowBox.png,al1_con.png,7,6,NaN,NaN,0.15,0.85,0,1,0,1,Volatile,Stable,3.294,0.815,1.282,2.664,expert
31,1673381530206,10/01/2023 20:12:10,1673381531970,0,10/01/2023 20:12:11,111483,5,task-xjip,repeat-7g8d#1->-repeat-38fk#1,26308124,BLIND,7766409,NaN,complete,NaN,63c019471dfc66664bd1e86e,computer,Desktop or Laptop,Windows 10,Chrome 108.0.0.0,1366x768,1366x768,Start of Day 2,SLS,90,A,Pass,End of Day 1,Pass,NaN,NaN,NaN,Pass,NaN,Pass,NaN,Start of Day 2,NaN,schedule_A,schedule_A,7,4,3,offer,Zone2,response_button_image,1586.5,NaN,NaN,redBox.png,1,0,1,0,NaN,NaN,NaN,NaN,NaN,trial_right,yellowBox.png,redBox.png,yellowBox.png,al1_con.png,7,6,NaN,NaN,0.15,0.85,0,1,0,1,Volatile,Stable,3.294,0.815,1.282,2.664,expert
32,1673381532282,10/01/2023 20:12:12,1673381533959,0,10/01/2023 20:12:13,111483,5,task-xjip,repeat-7g8d#1->-repeat-38fk#1,26308124,BLIND,7766409,NaN,complete,NaN,63c019471dfc66664bd1e86e,computer,Desktop or Laptop,Windows 10,Chrome 108.0.0.0,1366x768,1366x768,Start of Day 2,SLS,90,A,Pass,End of Day 1,Pass,NaN,NaN,NaN,Pass,NaN,Pass,NaN,Start of Day 2,NaN,schedule_A,schedule_A,7,4,4,feedback_l,Zone7,timelimit_screen,1999.99700000009,NaN,NaN,,NaN,0,1,0,NaN,NaN,1,NaN,NaN,trial_right,yellowBox.png,redBox.png,yellowBox.png,al1_con.png,7,6,NaN,NaN,0.15,0.85,0,1,0,1,Volatile,Stable,3.294,0.815,1.282,2.664,expert
33,1673381532535,10/01/2023 20:12:12,1673381534110,0,10/01/2023 20:12:14,111483,5,task-xjip,repeat-7g8d#1->-repeat-38fk#1,26308124,BLIND,7766409,NaN,complete,NaN,63c019471dfc66664bd1e86e,computer,Desktop or Laptop,Windows 10,Chrome 108.0.0.0,1366x768,1366x768,Start of Day 2,SLS,90,A,Pass,End of Day 1,Pass,NaN,NaN,NaN,Pass,NaN,Pass,NaN,Start of Day 2,NaN,schedule_A,schedule_A,7,4,6,end,Zone1,timelimit_screen,149.984999999986,NaN,NaN,,NaN,0,1,0,NaN,NaN,1,NaN,NaN,trial_right,yellowBox.png,redBox.png,yellowBox.png,al1_con.png,7,6,NaN,NaN,0.15,0.85,0,1,0,1,Volatile,Stable,3.294,0.815,1.282,2.664,expert
34,1673381533436,10/01/2023 20:12:13,1673381535202,0,10/01/2023 20:12:15,111483,5,task-xjip,repeat-7g8d#1->-repeat-38fk#1,26308124,BLIND,7766409,NaN,complete,NaN,63c019471dfc66664bd1e86e,computer,Desktop or Laptop,Windows 10,Chrome 108.0.0.0,1366x768,1366x768,Start of Day 2,SLS,90,A,Pass,End of Day 1,Pass,NaN,NaN,NaN,Pass,NaN,Pass,NaN,Start of Day 2,NaN,schedule_A,schedule_A,8,3,1,Screen 1,Zone1,continue_button,1006.59999996424,NaN,NaN,,NaN,0,1,0,NaN,NaN,NaN,NaN,NaN,trial_left,yellowBox.png,yellowBox.png,redBox.png,al1_con.png,8,7,NaN,NaN,0.15,0.85,0,1,0,0,Volatile,Stable,3.269,1.37,1.786,2.328,expert
35,1673381534416,10/01/2023 20:12:14,1673381536193,0,10/01/2023 20:12:16,111483,5,task-xjip,repeat-7g8d#1->-repeat-38fk#1,26308124,BLIND,7766409,NaN,complete,NaN,63c019471dfc66664bd1e86e,computer,Desktop or Laptop,Windows 10,Chrome 108.0.0.0,1366x768,1366x768,Start of Day 2,SLS,90,A,Pass,End of Day 1,Pass,NaN,NaN,NaN,Pass,NaN,Pass,NaN,Start of Day 2,NaN,schedule_A,schedule_A,8,3,2,individual,Zone4,timelimit_screen,999.959999999963,NaN,NaN,,NaN,0,1,0,NaN,NaN,1,NaN,NaN,trial_left,yellowBox.png,yellowBox.png,redBox.png,al1_con.png,8,7,NaN,NaN,0.15,0.85,0,1,0,0,Volatile,Stable,3.269,1.37,1.786,2.328,expert
36,1673381535019,10/01/2023 20:12:15,1673381536763,0,10/01/2023 20:12:16,111483,5,task-xjip,repeat-7g8d#1->-repeat-38fk#1,26308124,BLIND,7766409,NaN,complete,NaN,63c019471dfc66664bd1e86e,computer,Desktop or Laptop,Windows 10,Chrome 108.0.0.0,1366x768,1366x768,Start of Day 2,SLS,90,A,Pass,End of Day 1,Pass,NaN,NaN,NaN,Pass,NaN,Pass,NaN,Start of Day 2,NaN,schedule_A,schedule_A,8,3,3,offer,Zone2,response_button_image,524.600000023842,NaN,NaN,yellowBox.png,1,1,0,0,NaN,NaN,NaN,NaN,NaN,trial_left,yellowBox.png,yellowBox.png,redBox.png,al1_con.png,8,7,NaN,NaN,0.15,0.85,0,1,0,0,Volatile,Stable,3.269,1.37,1.786,2.328,expert
37,1673381537097,10/01/2023 20:12:17,1673381538759,0,10/01/2023 20:12:18,111483,5,task-xjip,repeat-7g8d#1->-repeat-38fk#1,26308124,BLIND,7766409,NaN,complete,NaN,63c019471dfc66664bd1e86e,computer,Desktop or Laptop,Windows 10,Chrome 108.0.0.0,1366x768,1366x768,Start of Day 2,SLS,90,A,Pass,End of Day 1,Pass,NaN,NaN,NaN,Pass,NaN,Pass,NaN,Start of Day 2,NaN,schedule_A,schedule_A,8,3,4,feedback_l,Zone7,timelimit_screen,1999.80099999998,NaN,NaN,,NaN,0,1,0,NaN,NaN,1,NaN,NaN,trial_left,yellowBox.png,yellowBox.png,redBox.png,al1_con.png,8,7,NaN,NaN,0.15,0.85,0,1,0,0,Volatile,Stable,3.269,1.37,1.786,2.328,expert
38,1673381537414,10/01/2023 20:12:17,1673381538909,0,10/01/2023 20:12:18,111483,5,task-xjip,repeat-7g8d#1->-repeat-38fk#1,26308124,BLIND,7766409,NaN,complete,NaN,63c019471dfc66664bd1e86e,computer,Desktop or Laptop,Windows 10,Chrome 108.0.0.0,1366x768,1366x768,Start of Day 2,SLS,90,A,Pass,End of Day 1,Pass,NaN,NaN,NaN,Pass,NaN,Pass,NaN,Start of Day 2,NaN,schedule_A,schedule_A,8,3,6,end,Zone1,timelimit_screen,150.091999999946,NaN,NaN,,NaN,0,1,0,NaN,NaN,1,NaN,NaN,trial_left,yellowBox.png,yellowBox.png,redBox.png,al1_con.png,8,7,NaN,NaN,0.15,0.85,0,1,0,0,Volatile,Stable,3.269,1.37,1.786,2.328,expert
39,1673381538498,10/01/2023 20:12:18,1673381540161,0,10/01/2023 20:12:20,111483,5,task-xjip,repeat-7g8d#1->-repeat-38fk#1,26308124,BLIND,7766409,NaN,complete,NaN,63c019471dfc66664bd1e86e,computer,Desktop or Laptop,Windows 10,Chrome 108.0.0.0,1366x768,1366x768,Start of Day 2,SLS,90,A,Pass,End of Day 1,Pass,NaN,NaN,NaN,Pass,NaN,Pass,NaN,Start of Day 2,NaN,schedule_A,schedule_A,9,4,1,Screen 1,Zone1,continue_button,1182.59999996424,NaN,NaN,,NaN,0,1,0,NaN,NaN,NaN,NaN,NaN,trial_left,yellowBox.png,redBox.png,yellowBox.png,al1_con.png,9,8,NaN,NaN,0.15,0.85,0,0,1,1,Volatile,Stable,3.975,0.576,1.256,1.807,expert
40,1673381539383,10/01/2023 20:12:19,1673381541143,0,10/01/2023 20:12:21,111483,5,task-xjip,repeat-7g8d#1->-repeat-38fk#1,26308124,BLIND,7766409,NaN,complete,NaN,63c019471dfc66664bd1e86e,computer,Desktop or Laptop,Windows 10,Chrome 108.0.0.0,1366x768,1366x768,Start of Day 2,SLS,90,A,Pass,End of Day 1,Pass,NaN,NaN,NaN,Pass,NaN,Pass,NaN,Start of Day 2,NaN,schedule_A,schedule_A,9,4,2,individual,Zone4,timelimit_screen,999.956000000006,NaN,NaN,,NaN,0,1,0,NaN,NaN,1,NaN,NaN,trial_left,yellowBox.png,redBox.png,yellowBox.png,al1_con.png,9,8,NaN,NaN,0.15,0.85,0,0,1,1,Volatile,Stable,3.975,0.576,1.256,1.807,expert
41,1673381540115,10/01/2023 20:12:20,1673381541887,0,10/01/2023 20:12:21,111483,5,task-xjip,repeat-7g8d#1->-repeat-38fk#1,26308124,BLIND,7766409,NaN,complete,NaN,63c019471dfc66664bd1e86e,computer,Desktop or Laptop,Windows 10,Chrome 108.0.0.0,1366x768,1366x768,Start of Day 2,SLS,90,A,Pass,End of Day 1,Pass,NaN,NaN,NaN,Pass,NaN,Pass,NaN,Start of Day 2,NaN,schedule_A,schedule_A,9,4,3,offer,Zone2,response_button_image,686.700000047684,NaN,NaN,redBox.png,1,0,1,0,NaN,NaN,NaN,NaN,NaN,trial_left,yellowBox.png,redBox.png,yellowBox.png,al1_con.png,9,8,NaN,NaN,0.15,0.85,0,0,1,1,Volatile,Stable,3.975,0.576,1.256,1.807,expert
42,1673381542093,10/01/2023 20:12:22,1673381543874,0,10/01/2023 20:12:23,111483,5,task-xjip,repeat-7g8d#1->-repeat-38fk#1,26308124,BLIND,7766409,NaN,complete,NaN,63c019471dfc66664bd1e86e,computer,Desktop or Laptop,Windows 10,Chrome 108.0.0.0,1366x768,1366x768,Start of Day 2,SLS,90,A,Pass,End of Day 1,Pass,NaN,NaN,NaN,Pass,NaN,Pass,NaN,Start of Day 2,NaN,schedule_A,schedule_A,9,4,4,feedback_l,Zone7,timelimit_screen,1999.91799999995,NaN,NaN,,NaN,0,1,0,NaN,NaN,1,NaN,NaN,trial_left,yellowBox.png,redBox.png,yellowBox.png,al1_con.png,9,8,NaN,NaN,0.15,0.85,0,0,1,1,Volatile,Stable,3.975,0.576,1.256,1.807,expert
43,1673381542245,10/01/2023 20:12:22,1673381544025,0,10/01/2023 20:12:24,111483,5,task-xjip,repeat-7g8d#1->-repeat-38fk#1,26308124,BLIND,7766409,NaN,complete,NaN,63c019471dfc66664bd1e86e,computer,Desktop or Laptop,Windows 10,Chrome 108.0.0.0,1366x768,1366x768,Start of Day 2,SLS,90,A,Pass,End of Day 1,Pass,NaN,NaN,NaN,Pass,NaN,Pass,NaN,Start of Day 2,NaN,schedule_A,schedule_A,9,4,6,end,Zone1,timelimit_screen,149.979999999981,NaN,NaN,,NaN,0,1,0,NaN,NaN,1,NaN,NaN,trial_left,yellowBox.png,redBox.png,yellowBox.png,al1_con.png,9,8,NaN,NaN,0.15,0.85,0,0,1,1,Volatile,Stable,3.975,0.576,1.256,1.807,expert
44,1673381543428,10/01/2023 20:12:23,1673381545211,0,10/01/2023 20:12:25,111483,5,task-xjip,repeat-7g8d#1->-repeat-38fk#1,26308124,BLIND,7766409,NaN,complete,NaN,63c019471dfc66664bd1e86e,computer,Desktop or Laptop,Windows 10,Chrome 108.0.0.0,1366x768,1366x768,Start of Day 2,SLS,90,A,Pass,End of Day 1,Pass,NaN,NaN,NaN,Pass,NaN,Pass,NaN,Start of Day 2,NaN,schedule_A,schedule_A,10,5,1,Screen 1,Zone1,continue_button,1112.80000001192,NaN,NaN,,NaN,0,1,0,NaN,NaN,NaN,NaN,NaN,trial_right,redBox.png,redBox.png,yellowBox.png,al1_con.png,10,9,NaN,NaN,0.15,0.85,1,0,0,1,Volatile,Stable,3.798,1.055,1.559,2.042,expert
45,1673381544424,10/01/2023 20:12:24,1673381546193,0,10/01/2023 20:12:26,111483,5,task-xjip,repeat-7g8d#1->-repeat-38fk#1,26308124,BLIND,7766409,NaN,complete,NaN,63c019471dfc66664bd1e86e,computer,Desktop or Laptop,Windows 10,Chrome 108.0.0.0,1366x768,1366x768,Start of Day 2,SLS,90,A,Pass,End of Day 1,Pass,NaN,NaN,NaN,Pass,NaN,Pass,NaN,Start of Day 2,NaN,schedule_A,schedule_A,10,5,2,individual,Zone4,timelimit_screen,999.962999999989,NaN,NaN,,NaN,0,1,0,NaN,NaN,1,NaN,NaN,trial_right,redBox.png,redBox.png,yellowBox.png,al1_con.png,10,9,NaN,NaN,0.15,0.85,1,0,0,1,Volatile,Stable,3.798,1.055,1.559,2.042,expert
46,1673381544980,10/01/2023 20:12:24,1673381546749,0,10/01/2023 20:12:26,111483,5,task-xjip,repeat-7g8d#1->-repeat-38fk#1,26308124,BLIND,7766409,NaN,complete,NaN,63c019471dfc66664bd1e86e,computer,Desktop or Laptop,Windows 10,Chrome 108.0.0.0,1366x768,1366x768,Start of Day 2,SLS,90,A,Pass,End of Day 1,Pass,NaN,NaN,NaN,Pass,NaN,Pass,NaN,Start of Day 2,NaN,schedule_A,schedule_A,10,5,3,offer,Zone3,response_button_image,502.300000011921,NaN,NaN,yellowBox.png,1,0,1,0,NaN,NaN,NaN,NaN,NaN,trial_right,redBox.png,redBox.png,yellowBox.png,al1_con.png,10,9,NaN,NaN,0.15,0.85,1,0,0,1,Volatile,Stable,3.798,1.055,1.559,2.042,expert
47,1673381547086,10/01/2023 20:12:27,1673381548742,0,10/01/2023 20:12:28,111483,5,task-xjip,repeat-7g8d#1->-repeat-38fk#1,26308124,BLIND,7766409,NaN,complete,NaN,63c019471dfc66664bd1e86e,computer,Desktop or Laptop,Windows 10,Chrome 108.0.0.0,1366x768,1366x768,Start of Day 2,SLS,90,A,Pass,End of Day 1,Pass,NaN,NaN,NaN,Pass,NaN,Pass,NaN,Start of Day 2,NaN,schedule_A,schedule_A,10,5,5,feedback_r,Zone7,timelimit_screen,1999.91599999997,NaN,NaN,,NaN,0,1,0,NaN,NaN,1,NaN,NaN,trial_right,redBox.png,redBox.png,yellowBox.png,al1_con.png,10,9,NaN,NaN,0.15,0.85,1,0,0,1,Volatile,Stable,3.798,1.055,1.559,2.042,expert
48,1673381547213,10/01/2023 20:12:27,1673381548892,0,10/01/2023 20:12:28,111483,5,task-xjip,repeat-7g8d#1->-repeat-38fk#1,26308124,BLIND,7766409,NaN,complete,NaN,63c019471dfc66664bd1e86e,computer,Desktop or Laptop,Windows 10,Chrome 108.0.0.0,1366x768,1366x768,Start of Day 2,SLS,90,A,Pass,End of Day 1,Pass,NaN,NaN,NaN,Pass,NaN,Pass,NaN,Start of Day 2,NaN,schedule_A,schedule_A,10,5,6,end,Zone1,timelimit_screen,149.97900000005,NaN,NaN,,NaN,0,1,0,NaN,NaN,1,NaN,NaN,trial_right,redBox.png,redBox.png,yellowBox.png,al1_con.png,10,9,NaN,NaN,0.15,0.85,1,0,0,1,Volatile,Stable,3.798,1.055,1.559,2.042,expert
49,1673381548112,10/01/2023 20:12:28,1673381549871,0,10/01/2023 20:12:29,111483,5,task-xjip,repeat-7g8d#1->-repeat-38fk#1,26308124,BLIND,7766409,NaN,complete,NaN,63c019471dfc66664bd1e86e,computer,Desktop or Laptop,Windows 10,Chrome 108.0.0.0,1366x768,1366x768,Start of Day 2,SLS,90,A,Pass,End of Day 1,Pass,NaN,NaN,NaN,Pass,NaN,Pass,NaN,Start of Day 2,NaN,schedule_A,schedule_A,11,6,1,Screen 1,Zone1,continue_button,908.400000035763,NaN,NaN,,NaN,0,1,0,NaN,NaN,NaN,NaN,NaN,trial_right,yellowBox.png,redBox.png,yellowBox.png,al1_con.png,21,10,NaN,NaN,0.15,0.85,0,1,0,1,Volatile,Stable,1.857,0.5,1.294,2.916,expert
50,1673381549096,10/01/2023 20:12:29,1673381550860,0,10/01/2023 20:12:30,111483,5,task-xjip,repeat-7g8d#1->-repeat-38fk#1,26308124,BLIND,7766409,NaN,complete,NaN,63c019471dfc66664bd1e86e,computer,Desktop or Laptop,Windows 10,Chrome 108.0.0.0,1366x768,1366x768,Start of Day 2,SLS,90,A,Pass,End of Day 1,Pass,NaN,NaN,NaN,Pass,NaN,Pass,NaN,Start of Day 2,NaN,schedule_A,schedule_A,11,6,2,individual,Zone4,timelimit_screen,999.967000000062,NaN,NaN,,NaN,0,1,0,NaN,NaN,1,NaN,NaN,trial_right,yellowBox.png,redBox.png,yellowBox.png,al1_con.png,21,10,NaN,NaN,0.15,0.85,0,1,0,1,Volatile,Stable,1.857,0.5,1.294,2.916,expert
51,1673381549827,10/01/2023 20:12:29,1673381551590,0,10/01/2023 20:12:31,111483,5,task-xjip,repeat-7g8d#1->-repeat-38fk#1,26308124,BLIND,7766409,NaN,complete,NaN,63c019471dfc66664bd1e86e,computer,Desktop or Laptop,Windows 10,Chrome 108.0.0.0,1366x768,1366x768,Start of Day 2,SLS,90,A,Pass,End of Day 1,Pass,NaN,NaN,NaN,Pass,NaN,Pass,NaN,Start of Day 2,NaN,schedule_A,schedule_A,11,6,3,offer,Zone2,response_button_image,679,NaN,NaN,redBox.png,1,0,1,0,NaN,NaN,NaN,NaN,NaN,trial_right,yellowBox.png,redBox.png,yellowBox.png,al1_con.png,21,10,NaN,NaN,0.15,0.85,0,1,0,1,Volatile,Stable,1.857,0.5,1.294,2.916,expert
52,1673381551810,10/01/2023 20:12:31,1673381553575,0,10/01/2023 20:12:33,111483,5,task-xjip,repeat-7g8d#1->-repeat-38fk#1,26308124,BLIND,7766409,NaN,complete,NaN,63c019471dfc66664bd1e86e,computer,Desktop or Laptop,Windows 10,Chrome 108.0.0.0,1366x768,1366x768,Start of Day 2,SLS,90,A,Pass,End of Day 1,Pass,NaN,NaN,NaN,Pass,NaN,Pass,NaN,Start of Day 2,NaN,schedule_A,schedule_A,11,6,4,feedback_l,Zone7,timelimit_screen,2000.15300000005,NaN,NaN,,NaN,0,1,0,NaN,NaN,1,NaN,NaN,trial_right,yellowBox.png,redBox.png,yellowBox.png,al1_con.png,21,10,NaN,NaN,0.15,0.85,0,1,0,1,Volatile,Stable,1.857,0.5,1.294,2.916,expert
53,1673381551939,10/01/2023 20:12:31,1673381553723,0,10/01/2023 20:12:33,111483,5,task-xjip,repeat-7g8d#1->-repeat-38fk#1,26308124,BLIND,7766409,NaN,complete,NaN,63c019471dfc66664bd1e86e,computer,Desktop or Laptop,Windows 10,Chrome 108.0.0.0,1366x768,1366x768,Start of Day 2,SLS,90,A,Pass,End of Day 1,Pass,NaN,NaN,NaN,Pass,NaN,Pass,NaN,Start of Day 2,NaN,schedule_A,schedule_A,11,6,6,end,Zone1,timelimit_screen,149.581000000006,NaN,NaN,,NaN,0,1,0,NaN,NaN,1,NaN,NaN,trial_right,yellowBox.png,redBox.png,yellowBox.png,al1_con.png,21,10,NaN,NaN,0.15,0.85,0,1,0,1,Volatile,Stable,1.857,0.5,1.294,2.916,expert
54,1673381552757,10/01/2023 20:12:32,1673381554520,0,10/01/2023 20:12:34,111483,5,task-xjip,repeat-7g8d#1->-repeat-38fk#1,26308124,BLIND,7766409,NaN,complete,NaN,63c019471dfc66664bd1e86e,computer,Desktop or Laptop,Windows 10,Chrome 108.0.0.0,1366x768,1366x768,Start of Day 2,SLS,90,A,Pass,End of Day 1,Pass,NaN,NaN,NaN,Pass,NaN,Pass,NaN,Start of Day 2,NaN,schedule_A,schedule_A,12,5,1,Screen 1,Zone1,continue_button,767.699999988079,NaN,NaN,,NaN,0,1,0,NaN,NaN,NaN,NaN,NaN,trial_left,redBox.png,redBox.png,yellowBox.png,al1_con.png,22,11,NaN,NaN,0.85,0.85,1,1,1,1,Volatile,Stable,1.126,1.849,1.483,1.689,expert
55,1673381553736,10/01/2023 20:12:33,1673381555508,0,10/01/2023 20:12:35,111483,5,task-xjip,repeat-7g8d#1->-repeat-38fk#1,26308124,BLIND,7766409,NaN,complete,NaN,63c019471dfc66664bd1e86e,computer,Desktop or Laptop,Windows 10,Chrome 108.0.0.0,1366x768,1366x768,Start of Day 2,SLS,90,A,Pass,End of Day 1,Pass,NaN,NaN,NaN,Pass,NaN,Pass,NaN,Start of Day 2,NaN,schedule_A,schedule_A,12,5,2,individual,Zone4,timelimit_screen,999.951000000001,NaN,NaN,,NaN,0,1,0,NaN,NaN,1,NaN,NaN,trial_left,redBox.png,redBox.png,yellowBox.png,al1_con.png,22,11,NaN,NaN,0.85,0.85,1,1,1,1,Volatile,Stable,1.126,1.849,1.483,1.689,expert
56,1673381554223,10/01/2023 20:12:34,1673381555986,0,10/01/2023 20:12:35,111483,5,task-xjip,repeat-7g8d#1->-repeat-38fk#1,26308124,BLIND,7766409,NaN,complete,NaN,63c019471dfc66664bd1e86e,computer,Desktop or Laptop,Windows 10,Chrome 108.0.0.0,1366x768,1366x768,Start of Day 2,SLS,90,A,Pass,End of Day 1,Pass,NaN,NaN,NaN,Pass,NaN,Pass,NaN,Start of Day 2,NaN,schedule_A,schedule_A,12,5,3,offer,bluebox,response_button_image,423.400000035763,NaN,NaN,yellowBox.png,1,0,1,0,NaN,NaN,NaN,NaN,NaN,trial_left,redBox.png,redBox.png,yellowBox.png,al1_con.png,22,11,NaN,NaN,0.85,0.85,1,1,1,1,Volatile,Stable,1.126,1.849,1.483,1.689,expert
57,1673381556200,10/01/2023 20:12:36,1673381557975,0,10/01/2023 20:12:37,111483,5,task-xjip,repeat-7g8d#1->-repeat-38fk#1,26308124,BLIND,7766409,NaN,complete,NaN,63c019471dfc66664bd1e86e,computer,Desktop or Laptop,Windows 10,Chrome 108.0.0.0,1366x768,1366x768,Start of Day 2,SLS,90,A,Pass,End of Day 1,Pass,NaN,NaN,NaN,Pass,NaN,Pass,NaN,Start of Day 2,NaN,schedule_A,schedule_A,12,5,5,feedback_r,Zone7,timelimit_screen,1999.88899999997,NaN,NaN,,NaN,0,1,0,NaN,NaN,1,NaN,NaN,trial_left,redBox.png,redBox.png,yellowBox.png,al1_con.png,22,11,NaN,NaN,0.85,0.85,1,1,1,1,Volatile,Stable,1.126,1.849,1.483,1.689,expert
58,1673381556370,10/01/2023 20:12:36,1673381558125,0,10/01/2023 20:12:38,111483,5,task-xjip,repeat-7g8d#1->-repeat-38fk#1,26308124,BLIND,7766409,NaN,complete,NaN,63c019471dfc66664bd1e86e,computer,Desktop or Laptop,Windows 10,Chrome 108.0.0.0,1366x768,1366x768,Start of Day 2,SLS,90,A,Pass,End of Day 1,Pass,NaN,NaN,NaN,Pass,NaN,Pass,NaN,Start of Day 2,NaN,schedule_A,schedule_A,12,5,6,end,Zone1,timelimit_screen,149.994000000064,NaN,NaN,,NaN,0,1,0,NaN,NaN,1,NaN,NaN,trial_left,redBox.png,redBox.png,yellowBox.png,al1_con.png,22,11,NaN,NaN,0.85,0.85,1,1,1,1,Volatile,Stable,1.126,1.849,1.483,1.689,expert
59,1673381557591,10/01/2023 20:12:37,1673381559245,0,10/01/2023 20:12:39,111483,5,task-xjip,repeat-7g8d#1->-repeat-38fk#1,26308124,BLIND,7766409,NaN,complete,NaN,63c019471dfc66664bd1e86e,computer,Desktop or Laptop,Windows 10,Chrome 108.0.0.0,1366x768,1366x768,Start of Day 2,SLS,90,A,Pass,End of Day 1,Pass,NaN,NaN,NaN,Pass,NaN,Pass,NaN,Start of Day 2,NaN,schedule_A,schedule_A,13,7,1,Screen 1,Zone1,continue_button,1062.80000001192,NaN,NaN,,NaN,0,1,0,NaN,NaN,NaN,NaN,NaN,trial_right,redBox.png,yellowBox.png,redBox.png,al1_con.png,23,12,NaN,NaN,0.85,0.85,1,1,1,0,Volatile,Stable,2.361,0.992,0.5,1.975,expert
60,1673381558472,10/01/2023 20:12:38,1673381560249,0,10/01/2023 20:12:40,111483,5,task-xjip,repeat-7g8d#1->-repeat-38fk#1,26308124,BLIND,7766409,NaN,complete,NaN,63c019471dfc66664bd1e86e,computer,Desktop or Laptop,Windows 10,Chrome 108.0.0.0,1366x768,1366x768,Start of Day 2,SLS,90,A,Pass,End of Day 1,Pass,NaN,NaN,NaN,Pass,NaN,Pass,NaN,Start of Day 2,NaN,schedule_A,schedule_A,13,7,2,individual,Zone4,timelimit_screen,999.878999999957,NaN,NaN,,NaN,0,1,0,NaN,NaN,1,NaN,NaN,trial_right,redBox.png,yellowBox.png,redBox.png,al1_con.png,23,12,NaN,NaN,0.85,0.85,1,1,1,0,Volatile,Stable,2.361,0.992,0.5,1.975,expert
61,1673381559319,10/01/2023 20:12:39,1673381561086,0,10/01/2023 20:12:41,111483,5,task-xjip,repeat-7g8d#1->-repeat-38fk#1,26308124,BLIND,7766409,NaN,complete,NaN,63c019471dfc66664bd1e86e,computer,Desktop or Laptop,Windows 10,Chrome 108.0.0.0,1366x768,1366x768,Start of Day 2,SLS,90,A,Pass,End of Day 1,Pass,NaN,NaN,NaN,Pass,NaN,Pass,NaN,Start of Day 2,NaN,schedule_A,schedule_A,13,7,3,offer,Zone2,response_button_image,781.699999988079,NaN,NaN,yellowBox.png,1,0,1,0,NaN,NaN,NaN,NaN,NaN,trial_right,redBox.png,yellowBox.png,redBox.png,al1_con.png,23,12,NaN,NaN,0.85,0.85,1,1,1,0,Volatile,Stable,2.361,0.992,0.5,1.975,expert
62,1673381561314,10/01/2023 20:12:41,1673381563075,0,10/01/2023 20:12:43,111483,5,task-xjip,repeat-7g8d#1->-repeat-38fk#1,26308124,BLIND,7766409,NaN,complete,NaN,63c019471dfc66664bd1e86e,computer,Desktop or Laptop,Windows 10,Chrome 108.0.0.0,1366x768,1366x768,Start of Day 2,SLS,90,A,Pass,End of Day 1,Pass,NaN,NaN,NaN,Pass,NaN,Pass,NaN,Start of Day 2,NaN,schedule_A,schedule_A,13,7,4,feedback_l,Zone7,timelimit_screen,1999.89500000002,NaN,NaN,,NaN,0,1,0,NaN,NaN,1,NaN,NaN,trial_right,redBox.png,yellowBox.png,redBox.png,al1_con.png,23,12,NaN,NaN,0.85,0.85,1,1,1,0,Volatile,Stable,2.361,0.992,0.5,1.975,expert
63,1673381561455,10/01/2023 20:12:41,1673381563224,0,10/01/2023 20:12:43,111483,5,task-xjip,repeat-7g8d#1->-repeat-38fk#1,26308124,BLIND,7766409,NaN,complete,NaN,63c019471dfc66664bd1e86e,computer,Desktop or Laptop,Windows 10,Chrome 108.0.0.0,1366x768,1366x768,Start of Day 2,SLS,90,A,Pass,End of Day 1,Pass,NaN,NaN,NaN,Pass,NaN,Pass,NaN,Start of Day 2,NaN,schedule_A,schedule_A,13,7,6,end,Zone1,timelimit_screen,150.001000000047,NaN,NaN,,NaN,0,1,0,NaN,NaN,1,NaN,NaN,trial_right,redBox.png,yellowBox.png,redBox.png,al1_con.png,23,12,NaN,NaN,0.85,0.85,1,1,1,0,Volatile,Stable,2.361,0.992,0.5,1.975,expert
64,1673381562480,10/01/2023 20:12:42,1673381564245,0,10/01/2023 20:12:44,111483,5,task-xjip,repeat-7g8d#1->-repeat-38fk#1,26308124,BLIND,7766409,NaN,complete,NaN,63c019471dfc66664bd1e86e,computer,Desktop or Laptop,Windows 10,Chrome 108.0.0.0,1366x768,1366x768,Start of Day 2,SLS,90,A,Pass,End of Day 1,Pass,NaN,NaN,NaN,Pass,NaN,Pass,NaN,Start of Day 2,NaN,schedule_A,schedule_A,14,8,1,Screen 1,Zone1,continue_button,962.900000035763,NaN,NaN,,NaN,0,1,0,NaN,NaN,NaN,NaN,NaN,trial_right,redBox.png,redBox.png,yellowBox.png,al1_con.png,24,13,NaN,NaN,0.85,0.85,1,0,0,1,Volatile,Stable,1.05,1.95,1.319,1.487,expert
65,1673381563474,10/01/2023 20:12:43,1673381565242,0,10/01/2023 20:12:45,111483,5,task-xjip,repeat-7g8d#1->-repeat-38fk#1,26308124,BLIND,7766409,NaN,complete,NaN,63c019471dfc66664bd1e86e,computer,Desktop or Laptop,Windows 10,Chrome 108.0.0.0,1366x768,1366x768,Start of Day 2,SLS,90,A,Pass,End of Day 1,Pass,NaN,NaN,NaN,Pass,NaN,Pass,NaN,Start of Day 2,NaN,schedule_A,schedule_A,14,8,2,individual,Zone4,timelimit_screen,1000.11699999997,NaN,NaN,,NaN,0,1,0,NaN,NaN,1,NaN,NaN,trial_right,redBox.png,redBox.png,yellowBox.png,al1_con.png,24,13,NaN,NaN,0.85,0.85,1,0,0,1,Volatile,Stable,1.05,1.95,1.319,1.487,expert
66,1673381564651,10/01/2023 20:12:44,1673381566419,0,10/01/2023 20:12:46,111483,5,task-xjip,repeat-7g8d#1->-repeat-38fk#1,26308124,BLIND,7766409,NaN,complete,NaN,63c019471dfc66664bd1e86e,computer,Desktop or Laptop,Windows 10,Chrome 108.0.0.0,1366x768,1366x768,Start of Day 2,SLS,90,A,Pass,End of Day 1,Pass,NaN,NaN,NaN,Pass,NaN,Pass,NaN,Start of Day 2,NaN,schedule_A,schedule_A,14,8,3,offer,Zone3,response_button_image,1129.89999997616,NaN,NaN,yellowBox.png,1,0,1,0,NaN,NaN,NaN,NaN,NaN,trial_right,redBox.png,redBox.png,yellowBox.png,al1_con.png,24,13,NaN,NaN,0.85,0.85,1,0,0,1,Volatile,Stable,1.05,1.95,1.319,1.487,expert
67,1673381566640,10/01/2023 20:12:46,1673381568408,0,10/01/2023 20:12:48,111483,5,task-xjip,repeat-7g8d#1->-repeat-38fk#1,26308124,BLIND,7766409,NaN,complete,NaN,63c019471dfc66664bd1e86e,computer,Desktop or Laptop,Windows 10,Chrome 108.0.0.0,1366x768,1366x768,Start of Day 2,SLS,90,A,Pass,End of Day 1,Pass,NaN,NaN,NaN,Pass,NaN,Pass,NaN,Start of Day 2,NaN,schedule_A,schedule_A,14,8,5,feedback_r,Zone7,timelimit_screen,1999.89000000001,NaN,NaN,,NaN,0,1,0,NaN,NaN,1,NaN,NaN,trial_right,redBox.png,redBox.png,yellowBox.png,al1_con.png,24,13,NaN,NaN,0.85,0.85,1,0,0,1,Volatile,Stable,1.05,1.95,1.319,1.487,expert
68,1673381566783,10/01/2023 20:12:46,1673381568557,0,10/01/2023 20:12:48,111483,5,task-xjip,repeat-7g8d#1->-repeat-38fk#1,26308124,BLIND,7766409,NaN,complete,NaN,63c019471dfc66664bd1e86e,computer,Desktop or Laptop,Windows 10,Chrome 108.0.0.0,1366x768,1366x768,Start of Day 2,SLS,90,A,Pass,End of Day 1,Pass,NaN,NaN,NaN,Pass,NaN,Pass,NaN,Start of Day 2,NaN,schedule_A,schedule_A,14,8,6,end,Zone1,timelimit_screen,149.993999999948,NaN,NaN,,NaN,0,1,0,NaN,NaN,1,NaN,NaN,trial_right,redBox.png,redBox.png,yellowBox.png,al1_con.png,24,13,NaN,NaN,0.85,0.85,1,0,0,1,Volatile,Stable,1.05,1.95,1.319,1.487,expert
69,1673381569231,10/01/2023 20:12:49,1673381570998,0,10/01/2023 20:12:50,111483,5,task-xjip,repeat-7g8d#1->-repeat-38fk#1,26308124,BLIND,7766409,NaN,complete,NaN,63c019471dfc66664bd1e86e,computer,Desktop or Laptop,Windows 10,Chrome 108.0.0.0,1366x768,1366x768,Start of Day 2,SLS,90,A,Pass,End of Day 1,Pass,NaN,NaN,NaN,Pass,NaN,Pass,NaN,Start of Day 2,NaN,schedule_A,schedule_A,15,9,1,Screen 1,Zone1,continue_button,2353.90000003576,NaN,NaN,,NaN,0,1,0,NaN,NaN,NaN,NaN,NaN,trial_right,redBox.png,yellowBox.png,redBox.png,al1_con.png,25,14,NaN,NaN,0.85,0.85,1,1,1,0,Volatile,Stable,3.395,0.84,0.803,1.252,expert
70,1673381570290,10/01/2023 20:12:50,1673381571992,0,10/01/2023 20:12:51,111483,5,task-xjip,repeat-7g8d#1->-repeat-38fk#1,26308124,BLIND,7766409,NaN,complete,NaN,63c019471dfc66664bd1e86e,computer,Desktop or Laptop,Windows 10,Chrome 108.0.0.0,1366x768,1366x768,Start of Day 2,SLS,90,A,Pass,End of Day 1,Pass,NaN,NaN,NaN,Pass,NaN,Pass,NaN,Start of Day 2,NaN,schedule_A,schedule_A,15,9,2,individual,Zone4,timelimit_screen,999.954000000027,NaN,NaN,,NaN,0,1,0,NaN,NaN,1,NaN,NaN,trial_right,redBox.png,yellowBox.png,redBox.png,al1_con.png,25,14,NaN,NaN,0.85,0.85,1,1,1,0,Volatile,Stable,3.395,0.84,0.803,1.252,expert
71,1673381571163,10/01/2023 20:12:51,1673381572930,0,10/01/2023 20:12:52,111483,5,task-xjip,repeat-7g8d#1->-repeat-38fk#1,26308124,BLIND,7766409,NaN,complete,NaN,63c019471dfc66664bd1e86e,computer,Desktop or Laptop,Windows 10,Chrome 108.0.0.0,1366x768,1366x768,Start of Day 2,SLS,90,A,Pass,End of Day 1,Pass,NaN,NaN,NaN,Pass,NaN,Pass,NaN,Start of Day 2,NaN,schedule_A,schedule_A,15,9,3,offer,Zone2,response_button_image,898.5,NaN,NaN,yellowBox.png,1,0,1,0,NaN,NaN,NaN,NaN,NaN,trial_right,redBox.png,yellowBox.png,redBox.png,al1_con.png,25,14,NaN,NaN,0.85,0.85,1,1,1,0,Volatile,Stable,3.395,0.84,0.803,1.252,expert
72,1673381573166,10/01/2023 20:12:53,1673381574922,0,10/01/2023 20:12:54,111483,5,task-xjip,repeat-7g8d#1->-repeat-38fk#1,26308124,BLIND,7766409,NaN,complete,NaN,63c019471dfc66664bd1e86e,computer,Desktop or Laptop,Windows 10,Chrome 108.0.0.0,1366x768,1366x768,Start of Day 2,SLS,90,A,Pass,End of Day 1,Pass,NaN,NaN,NaN,Pass,NaN,Pass,NaN,Start of Day 2,NaN,schedule_A,schedule_A,15,9,4,feedback_l,Zone7,timelimit_screen,1999.90500000003,NaN,NaN,,NaN,0,1,0,NaN,NaN,1,NaN,NaN,trial_right,redBox.png,yellowBox.png,redBox.png,al1_con.png,25,14,NaN,NaN,0.85,0.85,1,1,1,0,Volatile,Stable,3.395,0.84,0.803,1.252,expert
73,1673381573300,10/01/2023 20:12:53,1673381575072,0,10/01/2023 20:12:55,111483,5,task-xjip,repeat-7g8d#1->-repeat-38fk#1,26308124,BLIND,7766409,NaN,complete,NaN,63c019471dfc66664bd1e86e,computer,Desktop or Laptop,Windows 10,Chrome 108.0.0.0,1366x768,1366x768,Start of Day 2,SLS,90,A,Pass,End of Day 1,Pass,NaN,NaN,NaN,Pass,NaN,Pass,NaN,Start of Day 2,NaN,schedule_A,schedule_A,15,9,6,end,Zone1,timelimit_screen,149.996999999974,NaN,NaN,,NaN,0,1,0,NaN,NaN,1,NaN,NaN,trial_right,redBox.png,yellowBox.png,redBox.png,al1_con.png,25,14,NaN,NaN,0.85,0.85,1,1,1,0,Volatile,Stable,3.395,0.84,0.803,1.252,expert
74,1673381574319,10/01/2023 20:12:54,1673381576092,0,10/01/2023 20:12:56,111483,5,task-xjip,repeat-7g8d#1->-repeat-38fk#1,26308124,BLIND,7766409,NaN,complete,NaN,63c019471dfc66664bd1e86e,computer,Desktop or Laptop,Windows 10,Chrome 108.0.0.0,1366x768,1366x768,Start of Day 2,SLS,90,A,Pass,End of Day 1,Pass,NaN,NaN,NaN,Pass,NaN,Pass,NaN,Start of Day 2,NaN,schedule_A,schedule_A,16,10,1,Screen 1,Zone1,continue_button,945.299999952316,NaN,NaN,,NaN,0,1,0,NaN,NaN,NaN,NaN,NaN,trial_right,yellowBox.png,redBox.png,yellowBox.png,al1_con.png,26,15,NaN,NaN,0.85,0.85,0,1,0,1,Volatile,Stable,2.689,1.067,1.697,2.731,expert
75,1673381575307,10/01/2023 20:12:55,1673381577089,0,10/01/2023 20:12:57,111483,5,task-xjip,repeat-7g8d#1->-repeat-38fk#1,26308124,BLIND,7766409,NaN,complete,NaN,63c019471dfc66664bd1e86e,computer,Desktop or Laptop,Windows 10,Chrome 108.0.0.0,1366x768,1366x768,Start of Day 2,SLS,90,A,Pass,End of Day 1,Pass,NaN,NaN,NaN,Pass,NaN,Pass,NaN,Start of Day 2,NaN,schedule_A,schedule_A,16,10,2,individual,Zone4,timelimit_screen,999.949000000022,NaN,NaN,,NaN,0,1,0,NaN,NaN,1,NaN,NaN,trial_right,yellowBox.png,redBox.png,yellowBox.png,al1_con.png,26,15,NaN,NaN,0.85,0.85,0,1,0,1,Volatile,Stable,2.689,1.067,1.697,2.731,expert
76,1673381576498,10/01/2023 20:12:56,1673381578267,0,10/01/2023 20:12:58,111483,5,task-xjip,repeat-7g8d#1->-repeat-38fk#1,26308124,BLIND,7766409,NaN,complete,NaN,63c019471dfc66664bd1e86e,computer,Desktop or Laptop,Windows 10,Chrome 108.0.0.0,1366x768,1366x768,Start of Day 2,SLS,90,A,Pass,End of Day 1,Pass,NaN,NaN,NaN,Pass,NaN,Pass,NaN,Start of Day 2,NaN,schedule_A,schedule_A,16,10,3,offer,Zone3,response_button_image,1127.5,NaN,NaN,yellowBox.png,1,1,0,0,NaN,NaN,NaN,NaN,NaN,trial_right,yellowBox.png,redBox.png,yellowBox.png,al1_con.png,26,15,NaN,NaN,0.85,0.85,0,1,0,1,Volatile,Stable,2.689,1.067,1.697,2.731,expert
77,1673381578605,10/01/2023 20:12:58,1673381580255,0,10/01/2023 20:13:00,111483,5,task-xjip,repeat-7g8d#1->-repeat-38fk#1,26308124,BLIND,7766409,NaN,complete,NaN,63c019471dfc66664bd1e86e,computer,Desktop or Laptop,Windows 10,Chrome 108.0.0.0,1366x768,1366x768,Start of Day 2,SLS,90,A,Pass,End of Day 1,Pass,NaN,NaN,NaN,Pass,NaN,Pass,NaN,Start of Day 2,NaN,schedule_A,schedule_A,16,10,5,feedback_r,Zone7,timelimit_screen,1999.82299999997,NaN,NaN,,NaN,0,1,0,NaN,NaN,1,NaN,NaN,trial_right,yellowBox.png,redBox.png,yellowBox.png,al1_con.png,26,15,NaN,NaN,0.85,0.85,0,1,0,1,Volatile,Stable,2.689,1.067,1.697,2.731,expert
78,1673381578771,10/01/2023 20:12:58,1673381580405,0,10/01/2023 20:13:00,111483,5,task-xjip,repeat-7g8d#1->-repeat-38fk#1,26308124,BLIND,7766409,NaN,complete,NaN,63c019471dfc66664bd1e86e,computer,Desktop or Laptop,Windows 10,Chrome 108.0.0.0,1366x768,1366x768,Start of Day 2,SLS,90,A,Pass,End of Day 1,Pass,NaN,NaN,NaN,Pass,NaN,Pass,NaN,Start of Day 2,NaN,schedule_A,schedule_A,16,10,6,end,Zone1,timelimit_screen,150.070999999996,NaN,NaN,,NaN,0,1,0,NaN,NaN,1,NaN,NaN,trial_right,yellowBox.png,redBox.png,yellowBox.png,al1_con.png,26,15,NaN,NaN,0.85,0.85,0,1,0,1,Volatile,Stable,2.689,1.067,1.697,2.731,expert
79,1673381579506,10/01/2023 20:12:59,1673381581268,0,10/01/2023 20:13:01,111483,5,task-xjip,repeat-7g8d#1->-repeat-38fk#1,26308124,BLIND,7766409,NaN,complete,NaN,63c019471dfc66664bd1e86e,computer,Desktop or Laptop,Windows 10,Chrome 108.0.0.0,1366x768,1366x768,Start of Day 2,SLS,90,A,Pass,End of Day 1,Pass,NaN,NaN,NaN,Pass,NaN,Pass,NaN,Start of Day 2,NaN,schedule_A,schedule_A,17,6,1,Screen 1,Zone1,continue_button,783.5,NaN,NaN,,NaN,0,1,0,NaN,NaN,NaN,NaN,NaN,trial_left,yellowBox.png,yellowBox.png,redBox.png,al1_con.png,27,16,NaN,NaN,0.15,0.85,0,1,0,0,Volatile,Stable,1.378,0.689,0.878,2.076,expert
80,1673381580495,10/01/2023 20:13:00,1673381582255,0,10/01/2023 20:13:02,111483,5,task-xjip,repeat-7g8d#1->-repeat-38fk#1,26308124,BLIND,7766409,NaN,complete,NaN,63c019471dfc66664bd1e86e,computer,Desktop or Laptop,Windows 10,Chrome 108.0.0.0,1366x768,1366x768,Start of Day 2,SLS,90,A,Pass,End of Day 1,Pass,NaN,NaN,NaN,Pass,NaN,Pass,NaN,Start of Day 2,NaN,schedule_A,schedule_A,17,6,2,individual,Zone4,timelimit_screen,999.954999999958,NaN,NaN,,NaN,0,1,0,NaN,NaN,1,NaN,NaN,trial_left,yellowBox.png,yellowBox.png,redBox.png,al1_con.png,27,16,NaN,NaN,0.15,0.85,0,1,0,0,Volatile,Stable,1.378,0.689,0.878,2.076,expert
81,1673381581703,10/01/2023 20:13:01,1673381583445,0,10/01/2023 20:13:03,111483,5,task-xjip,repeat-7g8d#1->-repeat-38fk#1,26308124,BLIND,7766409,NaN,complete,NaN,63c019471dfc66664bd1e86e,computer,Desktop or Laptop,Windows 10,Chrome 108.0.0.0,1366x768,1366x768,Start of Day 2,SLS,90,A,Pass,End of Day 1,Pass,NaN,NaN,NaN,Pass,NaN,Pass,NaN,Start of Day 2,NaN,schedule_A,schedule_A,17,6,3,offer,Zone2,response_button_image,1155.39999997616,NaN,NaN,yellowBox.png,1,1,0,0,NaN,NaN,NaN,NaN,NaN,trial_left,yellowBox.png,yellowBox.png,redBox.png,al1_con.png,27,16,NaN,NaN,0.15,0.85,0,1,0,0,Volatile,Stable,1.378,0.689,0.878,2.076,expert
82,1673381583744,10/01/2023 20:13:03,1673381585438,0,10/01/2023 20:13:05,111483,5,task-xjip,repeat-7g8d#1->-repeat-38fk#1,26308124,BLIND,7766409,NaN,complete,NaN,63c019471dfc66664bd1e86e,computer,Desktop or Laptop,Windows 10,Chrome 108.0.0.0,1366x768,1366x768,Start of Day 2,SLS,90,A,Pass,End of Day 1,Pass,NaN,NaN,NaN,Pass,NaN,Pass,NaN,Start of Day 2,NaN,schedule_A,schedule_A,17,6,4,feedback_l,Zone7,timelimit_screen,1999.90500000003,NaN,NaN,,NaN,0,1,0,NaN,NaN,1,NaN,NaN,trial_left,yellowBox.png,yellowBox.png,redBox.png,al1_con.png,27,16,NaN,NaN,0.15,0.85,0,1,0,0,Volatile,Stable,1.378,0.689,0.878,2.076,expert
83,1673381584002,10/01/2023 20:13:04,1673381585594,0,10/01/2023 20:13:05,111483,5,task-xjip,repeat-7g8d#1->-repeat-38fk#1,26308124,BLIND,7766409,NaN,complete,NaN,63c019471dfc66664bd1e86e,computer,Desktop or Laptop,Windows 10,Chrome 108.0.0.0,1366x768,1366x768,Start of Day 2,SLS,90,A,Pass,End of Day 1,Pass,NaN,NaN,NaN,Pass,NaN,Pass,NaN,Start of Day 2,NaN,schedule_A,schedule_A,17,6,6,end,Zone1,timelimit_screen,152.603000000003,NaN,NaN,,NaN,0,1,0,NaN,NaN,1,NaN,NaN,trial_left,yellowBox.png,yellowBox.png,redBox.png,al1_con.png,27,16,NaN,NaN,0.15,0.85,0,1,0,0,Volatile,Stable,1.378,0.689,0.878,2.076,expert
84,1673381585249,10/01/2023 20:13:05,1673381586930,0,10/01/2023 20:13:06,111483,5,task-xjip,repeat-7g8d#1->-repeat-38fk#1,26308124,BLIND,7766409,NaN,complete,NaN,63c019471dfc66664bd1e86e,computer,Desktop or Laptop,Windows 10,Chrome 108.0.0.0,1366x768,1366x768,Start of Day 2,SLS,90,A,Pass,End of Day 1,Pass,NaN,NaN,NaN,Pass,NaN,Pass,NaN,Start of Day 2,NaN,schedule_A,schedule_A,18,11,1,Screen 1,Zone1,continue_button,1264.59999996424,NaN,NaN,,NaN,0,1,0,NaN,NaN,NaN,NaN,NaN,trial_right,yellowBox.png,redBox.png,yellowBox.png,al1_con.png,28,17,NaN,NaN,0.15,0.85,0,1,0,1,Volatile,Stable,2.714,0.739,1.975,1.134,expert
85,1673381586150,10/01/2023 20:13:06,1673381587922,0,10/01/2023 20:13:07,111483,5,task-xjip,repeat-7g8d#1->-repeat-38fk#1,26308124,BLIND,7766409,NaN,complete,NaN,63c019471dfc66664bd1e86e,computer,Desktop or Laptop,Windows 10,Chrome 108.0.0.0,1366x768,1366x768,Start of Day 2,SLS,90,A,Pass,End of Day 1,Pass,NaN,NaN,NaN,Pass,NaN,Pass,NaN,Start of Day 2,NaN,schedule_A,schedule_A,18,11,2,individual,Zone4,timelimit_screen,999.947999999975,NaN,NaN,,NaN,0,1,0,NaN,NaN,1,NaN,NaN,trial_right,yellowBox.png,redBox.png,yellowBox.png,al1_con.png,28,17,NaN,NaN,0.15,0.85,0,1,0,1,Volatile,Stable,2.714,0.739,1.975,1.134,expert
86,1673381587249,10/01/2023 20:13:07,1673381588896,0,10/01/2023 20:13:08,111483,5,task-xjip,repeat-7g8d#1->-repeat-38fk#1,26308124,BLIND,7766409,NaN,complete,NaN,63c019471dfc66664bd1e86e,computer,Desktop or Laptop,Windows 10,Chrome 108.0.0.0,1366x768,1366x768,Start of Day 2,SLS,90,A,Pass,End of Day 1,Pass,NaN,NaN,NaN,Pass,NaN,Pass,NaN,Start of Day 2,NaN,schedule_A,schedule_A,18,11,3,offer,Zone3,response_button_image,946.400000035763,NaN,NaN,yellowBox.png,1,1,0,0,NaN,NaN,NaN,NaN,NaN,trial_right,yellowBox.png,redBox.png,yellowBox.png,al1_con.png,28,17,NaN,NaN,0.15,0.85,0,1,0,1,Volatile,Stable,2.714,0.739,1.975,1.134,expert
87,1673381589116,10/01/2023 20:13:09,1673381590888,0,10/01/2023 20:13:10,111483,5,task-xjip,repeat-7g8d#1->-repeat-38fk#1,26308124,BLIND,7766409,NaN,complete,NaN,63c019471dfc66664bd1e86e,computer,Desktop or Laptop,Windows 10,Chrome 108.0.0.0,1366x768,1366x768,Start of Day 2,SLS,90,A,Pass,End of Day 1,Pass,NaN,NaN,NaN,Pass,NaN,Pass,NaN,Start of Day 2,NaN,schedule_A,schedule_A,18,11,5,feedback_r,Zone7,timelimit_screen,1999.91399999999,NaN,NaN,,NaN,0,1,0,NaN,NaN,1,NaN,NaN,trial_right,yellowBox.png,redBox.png,yellowBox.png,al1_con.png,28,17,NaN,NaN,0.15,0.85,0,1,0,1,Volatile,Stable,2.714,0.739,1.975,1.134,expert
88,1673381589336,10/01/2023 20:13:09,1673381591037,0,10/01/2023 20:13:11,111483,5,task-xjip,repeat-7g8d#1->-repeat-38fk#1,26308124,BLIND,7766409,NaN,complete,NaN,63c019471dfc66664bd1e86e,computer,Desktop or Laptop,Windows 10,Chrome 108.0.0.0,1366x768,1366x768,Start of Day 2,SLS,90,A,Pass,End of Day 1,Pass,NaN,NaN,NaN,Pass,NaN,Pass,NaN,Start of Day 2,NaN,schedule_A,schedule_A,18,11,6,end,Zone1,timelimit_screen,149.98199999996,NaN,NaN,,NaN,0,1,0,NaN,NaN,1,NaN,NaN,trial_right,yellowBox.png,redBox.png,yellowBox.png,al1_con.png,28,17,NaN,NaN,0.15,0.85,0,1,0,1,Volatile,Stable,2.714,0.739,1.975,1.134,expert
89,1673381590747,10/01/2023 20:13:10,1673381592476,0,10/01/2023 20:13:12,111483,5,task-xjip,repeat-7g8d#1->-repeat-38fk#1,26308124,BLIND,7766409,NaN,complete,NaN,63c019471dfc66664bd1e86e,computer,Desktop or Laptop,Windows 10,Chrome 108.0.0.0,1366x768,1366x768,Start of Day 2,SLS,90,A,Pass,End of Day 1,Pass,NaN,NaN,NaN,Pass,NaN,Pass,NaN,Start of Day 2,NaN,schedule_A,schedule_A,19,7,1,Screen 1,Zone1,continue_button,1378.5,NaN,NaN,,NaN,0,1,0,NaN,NaN,NaN,NaN,NaN,trial_left,yellowBox.png,yellowBox.png,redBox.png,al1_con.png,29,18,NaN,NaN,0.15,0.85,0,1,0,0,Volatile,Stable,3.874,0.676,1.496,1.639,expert
90,1673381591793,10/01/2023 20:13:11,1673381593471,0,10/01/2023 20:13:13,111483,5,task-xjip,repeat-7g8d#1->-repeat-38fk#1,26308124,BLIND,7766409,NaN,complete,NaN,63c019471dfc66664bd1e86e,computer,Desktop or Laptop,Windows 10,Chrome 108.0.0.0,1366x768,1366x768,Start of Day 2,SLS,90,A,Pass,End of Day 1,Pass,NaN,NaN,NaN,Pass,NaN,Pass,NaN,Start of Day 2,NaN,schedule_A,schedule_A,19,7,2,individual,Zone4,timelimit_screen,999.930999999982,NaN,NaN,,NaN,0,1,0,NaN,NaN,1,NaN,NaN,trial_left,yellowBox.png,yellowBox.png,redBox.png,al1_con.png,29,18,NaN,NaN,0.15,0.85,0,1,0,0,Volatile,Stable,3.874,0.676,1.496,1.639,expert
91,1673381593209,10/01/2023 20:13:13,1673381594967,0,10/01/2023 20:13:14,111483,5,task-xjip,repeat-7g8d#1->-repeat-38fk#1,26308124,BLIND,7766409,NaN,complete,NaN,63c019471dfc66664bd1e86e,computer,Desktop or Laptop,Windows 10,Chrome 108.0.0.0,1366x768,1366x768,Start of Day 2,SLS,90,A,Pass,End of Day 1,Pass,NaN,NaN,NaN,Pass,NaN,Pass,NaN,Start of Day 2,NaN,schedule_A,schedule_A,19,7,3,offer,Zone2,response_button_image,1448,NaN,NaN,yellowBox.png,1,1,0,0,NaN,NaN,NaN,NaN,NaN,trial_left,yellowBox.png,yellowBox.png,redBox.png,al1_con.png,29,18,NaN,NaN,0.15,0.85,0,1,0,0,Volatile,Stable,3.874,0.676,1.496,1.639,expert
92,1673381595208,10/01/2023 20:13:15,1673381596955,0,10/01/2023 20:13:16,111483,5,task-xjip,repeat-7g8d#1->-repeat-38fk#1,26308124,BLIND,7766409,NaN,complete,NaN,63c019471dfc66664bd1e86e,computer,Desktop or Laptop,Windows 10,Chrome 108.0.0.0,1366x768,1366x768,Start of Day 2,SLS,90,A,Pass,End of Day 1,Pass,NaN,NaN,NaN,Pass,NaN,Pass,NaN,Start of Day 2,NaN,schedule_A,schedule_A,19,7,4,feedback_l,Zone7,timelimit_screen,1999.89000000001,NaN,NaN,,NaN,0,1,0,NaN,NaN,1,NaN,NaN,trial_left,yellowBox.png,yellowBox.png,redBox.png,al1_con.png,29,18,NaN,NaN,0.15,0.85,0,1,0,0,Volatile,Stable,3.874,0.676,1.496,1.639,expert
93,1673381595363,10/01/2023 20:13:15,1673381597104,0,10/01/2023 20:13:17,111483,5,task-xjip,repeat-7g8d#1->-repeat-38fk#1,26308124,BLIND,7766409,NaN,complete,NaN,63c019471dfc66664bd1e86e,computer,Desktop or Laptop,Windows 10,Chrome 108.0.0.0,1366x768,1366x768,Start of Day 2,SLS,90,A,Pass,End of Day 1,Pass,NaN,NaN,NaN,Pass,NaN,Pass,NaN,Start of Day 2,NaN,schedule_A,schedule_A,19,7,6,end,Zone1,timelimit_screen,149.932999999961,NaN,NaN,,NaN,0,1,0,NaN,NaN,1,NaN,NaN,trial_left,yellowBox.png,yellowBox.png,redBox.png,al1_con.png,29,18,NaN,NaN,0.15,0.85,0,1,0,0,Volatile,Stable,3.874,0.676,1.496,1.639,expert
94,1673381596764,10/01/2023 20:13:16,1673381598493,0,10/01/2023 20:13:18,111483,5,task-xjip,repeat-7g8d#1->-repeat-38fk#1,26308124,BLIND,7766409,NaN,complete,NaN,63c019471dfc66664bd1e86e,computer,Desktop or Laptop,Windows 10,Chrome 108.0.0.0,1366x768,1366x768,Start of Day 2,SLS,90,A,Pass,End of Day 1,Pass,NaN,NaN,NaN,Pass,NaN,Pass,NaN,Start of Day 2,NaN,schedule_A,schedule_A,20,12,1,Screen 1,Zone1,continue_button,1331.39999997616,NaN,NaN,,NaN,0,1,0,NaN,NaN,NaN,NaN,NaN,trial_right,yellowBox.png,yellowBox.png,redBox.png,al1_con.png,30,19,NaN,NaN,0.15,0.85,0,0,1,0,Volatile,Stable,1.252,1.193,0.853,2.681,expert
95,1673381597903,10/01/2023 20:13:17,1673381599489,0,10/01/2023 20:13:19,111483,5,task-xjip,repeat-7g8d#1->-repeat-38fk#1,26308124,BLIND,7766409,NaN,complete,NaN,63c019471dfc66664bd1e86e,computer,Desktop or Laptop,Windows 10,Chrome 108.0.0.0,1366x768,1366x768,Start of Day 2,SLS,90,A,Pass,End of Day 1,Pass,NaN,NaN,NaN,Pass,NaN,Pass,NaN,Start of Day 2,NaN,schedule_A,schedule_A,20,12,2,individual,Zone4,timelimit_screen,999.954000000027,NaN,NaN,,NaN,0,1,0,NaN,NaN,1,NaN,NaN,trial_right,yellowBox.png,yellowBox.png,redBox.png,al1_con.png,30,19,NaN,NaN,0.15,0.85,0,0,1,0,Volatile,Stable,1.252,1.193,0.853,2.681,expert
96,1673381598695,10/01/2023 20:13:18,1673381600449,0,10/01/2023 20:13:20,111483,5,task-xjip,repeat-7g8d#1->-repeat-38fk#1,26308124,BLIND,7766409,NaN,complete,NaN,63c019471dfc66664bd1e86e,computer,Desktop or Laptop,Windows 10,Chrome 108.0.0.0,1366x768,1366x768,Start of Day 2,SLS,90,A,Pass,End of Day 1,Pass,NaN,NaN,NaN,Pass,NaN,Pass,NaN,Start of Day 2,NaN,schedule_A,schedule_A,20,12,3,offer,Zone3,response_button_image,919.699999988079,NaN,NaN,redBox.png,1,0,1,0,NaN,NaN,NaN,NaN,NaN,trial_right,yellowBox.png,yellowBox.png,redBox.png,al1_con.png,30,19,NaN,NaN,0.15,0.85,0,0,1,0,Volatile,Stable,1.252,1.193,0.853,2.681,expert
97,1673381600673,10/01/2023 20:13:20,1673381602437,0,10/01/2023 20:13:22,111483,5,task-xjip,repeat-7g8d#1->-repeat-38fk#1,26308124,BLIND,7766409,NaN,complete,NaN,63c019471dfc66664bd1e86e,computer,Desktop or Laptop,Windows 10,Chrome 108.0.0.0,1366x768,1366x768,Start of Day 2,SLS,90,A,Pass,End of Day 1,Pass,NaN,NaN,NaN,Pass,NaN,Pass,NaN,Start of Day 2,NaN,schedule_A,schedule_A,20,12,5,feedback_r,Zone7,timelimit_screen,1999.91700000002,NaN,NaN,,NaN,0,1,0,NaN,NaN,1,NaN,NaN,trial_right,yellowBox.png,yellowBox.png,redBox.png,al1_con.png,30,19,NaN,NaN,0.15,0.85,0,0,1,0,Volatile,Stable,1.252,1.193,0.853,2.681,expert
98,1673381600823,10/01/2023 20:13:20,1673381602587,0,10/01/2023 20:13:22,111483,5,task-xjip,repeat-7g8d#1->-repeat-38fk#1,26308124,BLIND,7766409,NaN,complete,NaN,63c019471dfc66664bd1e86e,computer,Desktop or Laptop,Windows 10,Chrome 108.0.0.0,1366x768,1366x768,Start of Day 2,SLS,90,A,Pass,End of Day 1,Pass,NaN,NaN,NaN,Pass,NaN,Pass,NaN,Start of Day 2,NaN,schedule_A,schedule_A,20,12,6,end,Zone1,timelimit_screen,149.98199999996,NaN,NaN,,NaN,0,1,0,NaN,NaN,1,NaN,NaN,trial_right,yellowBox.png,yellowBox.png,redBox.png,al1_con.png,30,19,NaN,NaN,0.15,0.85,0,0,1,0,Volatile,Stable,1.252,1.193,0.853,2.681,expert
99,1673381602144,10/01/2023 20:13:22,1673381603913,0,10/01/2023 20:13:23,111483,5,task-xjip,repeat-7g8d#1->-repeat-38fk#1,26308124,BLIND,7766409,NaN,complete,NaN,63c019471dfc66664bd1e86e,computer,Desktop or Laptop,Windows 10,Chrome 108.0.0.0,1366x768,1366x768,Start of Day 2,SLS,90,A,Pass,End of Day 1,Pass,NaN,NaN,NaN,Pass,NaN,Pass,NaN,Start of Day 2,NaN,schedule_A,schedule_A,21,13,1,Screen 1,Zone1,continue_button,1256.40000003576,NaN,NaN,,NaN,0,1,0,NaN,NaN,NaN,NaN,NaN,trial_right,yellowBox.png,redBox.png,yellowBox.png,al1_con.png,41,20,NaN,NaN,0.15,0.85,0,1,0,1,Volatile,Stable,3.521,1.723,1.37,1.655,expert
100,1673381603131,10/01/2023 20:13:23,1673381604905,0,10/01/2023 20:13:24,111483,5,task-xjip,repeat-7g8d#1->-repeat-38fk#1,26308124,BLIND,7766409,NaN,complete,NaN,63c019471dfc66664bd1e86e,computer,Desktop or Laptop,Windows 10,Chrome 108.0.0.0,1366x768,1366x768,Start of Day 2,SLS,90,A,Pass,End of Day 1,Pass,NaN,NaN,NaN,Pass,NaN,Pass,NaN,Start of Day 2,NaN,schedule_A,schedule_A,21,13,2,individual,Zone4,timelimit_screen,999.951000000001,NaN,NaN,,NaN,0,1,0,NaN,NaN,1,NaN,NaN,trial_right,yellowBox.png,redBox.png,yellowBox.png,al1_con.png,41,20,NaN,NaN,0.15,0.85,0,1,0,1,Volatile,Stable,3.521,1.723,1.37,1.655,expert
101,1673381604369,10/01/2023 20:13:24,1673381606134,0,10/01/2023 20:13:26,111483,5,task-xjip,repeat-7g8d#1->-repeat-38fk#1,26308124,BLIND,7766409,NaN,complete,NaN,63c019471dfc66664bd1e86e,computer,Desktop or Laptop,Windows 10,Chrome 108.0.0.0,1366x768,1366x768,Start of Day 2,SLS,90,A,Pass,End of Day 1,Pass,NaN,NaN,NaN,Pass,NaN,Pass,NaN,Start of Day 2,NaN,schedule_A,schedule_A,21,13,3,offer,Zone3,response_button_image,1175.80000001192,NaN,NaN,yellowBox.png,1,1,0,0,NaN,NaN,NaN,NaN,NaN,trial_right,yellowBox.png,redBox.png,yellowBox.png,al1_con.png,41,20,NaN,NaN,0.15,0.85,0,1,0,1,Volatile,Stable,3.521,1.723,1.37,1.655,expert
102,1673381606365,10/01/2023 20:13:26,1673381608120,0,10/01/2023 20:13:28,111483,5,task-xjip,repeat-7g8d#1->-repeat-38fk#1,26308124,BLIND,7766409,NaN,complete,NaN,63c019471dfc66664bd1e86e,computer,Desktop or Laptop,Windows 10,Chrome 108.0.0.0,1366x768,1366x768,Start of Day 2,SLS,90,A,Pass,End of Day 1,Pass,NaN,NaN,NaN,Pass,NaN,Pass,NaN,Start of Day 2,NaN,schedule_A,schedule_A,21,13,5,feedback_r,Zone7,timelimit_screen,1999.91700000002,NaN,NaN,,NaN,0,1,0,NaN,NaN,1,NaN,NaN,trial_right,yellowBox.png,redBox.png,yellowBox.png,al1_con.png,41,20,NaN,NaN,0.15,0.85,0,1,0,1,Volatile,Stable,3.521,1.723,1.37,1.655,expert
103,1673381606496,10/01/2023 20:13:26,1673381608270,0,10/01/2023 20:13:28,111483,5,task-xjip,repeat-7g8d#1->-repeat-38fk#1,26308124,BLIND,7766409,NaN,complete,NaN,63c019471dfc66664bd1e86e,computer,Desktop or Laptop,Windows 10,Chrome 108.0.0.0,1366x768,1366x768,Start of Day 2,SLS,90,A,Pass,End of Day 1,Pass,NaN,NaN,NaN,Pass,NaN,Pass,NaN,Start of Day 2,NaN,schedule_A,schedule_A,21,13,6,end,Zone1,timelimit_screen,149.983000000007,NaN,NaN,,NaN,0,1,0,NaN,NaN,1,NaN,NaN,trial_right,yellowBox.png,redBox.png,yellowBox.png,al1_con.png,41,20,NaN,NaN,0.15,0.85,0,1,0,1,Volatile,Stable,3.521,1.723,1.37,1.655,expert
104,1673381607695,10/01/2023 20:13:27,1673381609327,0,10/01/2023 20:13:29,111483,5,task-xjip,repeat-7g8d#1->-repeat-38fk#1,26308124,BLIND,7766409,NaN,complete,NaN,63c019471dfc66664bd1e86e,computer,Desktop or Laptop,Windows 10,Chrome 108.0.0.0,1366x768,1366x768,Start of Day 2,SLS,90,A,Pass,End of Day 1,Pass,NaN,NaN,NaN,Pass,NaN,Pass,NaN,Start of Day 2,NaN,schedule_A,schedule_A,22,14,1,Screen 1,Zone1,continue_button,1002.39999997616,NaN,NaN,,NaN,0,1,0,NaN,NaN,NaN,NaN,NaN,trial_right,redBox.png,yellowBox.png,redBox.png,al1_con.png,42,21,NaN,NaN,0.85,0.85,1,1,1,0,Stable,Stable,2.336,0.651,1.685,2.882,expert
105,1673381608548,10/01/2023 20:13:28,1673381610319,0,10/01/2023 20:13:30,111483,5,task-xjip,repeat-7g8d#1->-repeat-38fk#1,26308124,BLIND,7766409,NaN,complete,NaN,63c019471dfc66664bd1e86e,computer,Desktop or Laptop,Windows 10,Chrome 108.0.0.0,1366x768,1366x768,Start of Day 2,SLS,90,A,Pass,End of Day 1,Pass,NaN,NaN,NaN,Pass,NaN,Pass,NaN,Start of Day 2,NaN,schedule_A,schedule_A,22,14,2,individual,Zone4,timelimit_screen,999.804000000004,NaN,NaN,,NaN,0,1,0,NaN,NaN,1,NaN,NaN,trial_right,redBox.png,yellowBox.png,redBox.png,al1_con.png,42,21,NaN,NaN,0.85,0.85,1,1,1,0,Stable,Stable,2.336,0.651,1.685,2.882,expert
106,1673381609481,10/01/2023 20:13:29,1673381611255,0,10/01/2023 20:13:31,111483,5,task-xjip,repeat-7g8d#1->-repeat-38fk#1,26308124,BLIND,7766409,NaN,complete,NaN,63c019471dfc66664bd1e86e,computer,Desktop or Laptop,Windows 10,Chrome 108.0.0.0,1366x768,1366x768,Start of Day 2,SLS,90,A,Pass,End of Day 1,Pass,NaN,NaN,NaN,Pass,NaN,Pass,NaN,Start of Day 2,NaN,schedule_A,schedule_A,22,14,3,offer,Zone3,response_button_image,916.899999976158,NaN,NaN,redBox.png,1,1,0,0,NaN,NaN,NaN,NaN,NaN,trial_right,redBox.png,yellowBox.png,redBox.png,al1_con.png,42,21,NaN,NaN,0.85,0.85,1,1,1,0,Stable,Stable,2.336,0.651,1.685,2.882,expert
107,1673381611470,10/01/2023 20:13:31,1673381613237,0,10/01/2023 20:13:33,111483,5,task-xjip,repeat-7g8d#1->-repeat-38fk#1,26308124,BLIND,7766409,NaN,complete,NaN,63c019471dfc66664bd1e86e,computer,Desktop or Laptop,Windows 10,Chrome 108.0.0.0,1366x768,1366x768,Start of Day 2,SLS,90,A,Pass,End of Day 1,Pass,NaN,NaN,NaN,Pass,NaN,Pass,NaN,Start of Day 2,NaN,schedule_A,schedule_A,22,14,5,feedback_r,Zone7,timelimit_screen,1999.89099999995,NaN,NaN,,NaN,0,1,0,NaN,NaN,1,NaN,NaN,trial_right,redBox.png,yellowBox.png,redBox.png,al1_con.png,42,21,NaN,NaN,0.85,0.85,1,1,1,0,Stable,Stable,2.336,0.651,1.685,2.882,expert
108,1673381611622,10/01/2023 20:13:31,1673381613386,0,10/01/2023 20:13:33,111483,5,task-xjip,repeat-7g8d#1->-repeat-38fk#1,26308124,BLIND,7766409,NaN,complete,NaN,63c019471dfc66664bd1e86e,computer,Desktop or Laptop,Windows 10,Chrome 108.0.0.0,1366x768,1366x768,Start of Day 2,SLS,90,A,Pass,End of Day 1,Pass,NaN,NaN,NaN,Pass,NaN,Pass,NaN,Start of Day 2,NaN,schedule_A,schedule_A,22,14,6,end,Zone1,timelimit_screen,149.994999999995,NaN,NaN,,NaN,0,1,0,NaN,NaN,1,NaN,NaN,trial_right,redBox.png,yellowBox.png,redBox.png,al1_con.png,42,21,NaN,NaN,0.85,0.85,1,1,1,0,Stable,Stable,2.336,0.651,1.685,2.882,expert
109,1673381612879,10/01/2023 20:13:32,1673381614631,0,10/01/2023 20:13:34,111483,5,task-xjip,repeat-7g8d#1->-repeat-38fk#1,26308124,BLIND,7766409,NaN,complete,NaN,63c019471dfc66664bd1e86e,computer,Desktop or Laptop,Windows 10,Chrome 108.0.0.0,1366x768,1366x768,Start of Day 2,SLS,90,A,Pass,End of Day 1,Pass,NaN,NaN,NaN,Pass,NaN,Pass,NaN,Start of Day 2,NaN,schedule_A,schedule_A,23,15,1,Screen 1,Zone1,continue_button,1156.59999996424,NaN,NaN,,NaN,0,1,0,NaN,NaN,NaN,NaN,NaN,trial_right,redBox.png,yellowBox.png,redBox.png,al1_con.png,43,22,NaN,NaN,0.85,0.85,1,1,1,0,Stable,Stable,3.622,1.319,1.193,1.067,expert
110,1673381613848,10/01/2023 20:13:33,1673381615622,0,10/01/2023 20:13:35,111483,5,task-xjip,repeat-7g8d#1->-repeat-38fk#1,26308124,BLIND,7766409,NaN,complete,NaN,63c019471dfc66664bd1e86e,computer,Desktop or Laptop,Windows 10,Chrome 108.0.0.0,1366x768,1366x768,Start of Day 2,SLS,90,A,Pass,End of Day 1,Pass,NaN,NaN,NaN,Pass,NaN,Pass,NaN,Start of Day 2,NaN,schedule_A,schedule_A,23,15,2,individual,Zone4,timelimit_screen,1000.22999999998,NaN,NaN,,NaN,0,1,0,NaN,NaN,1,NaN,NaN,trial_right,redBox.png,yellowBox.png,redBox.png,al1_con.png,43,22,NaN,NaN,0.85,0.85,1,1,1,0,Stable,Stable,3.622,1.319,1.193,1.067,expert
111,1673381614938,10/01/2023 20:13:34,1673381616694,0,10/01/2023 20:13:36,111483,5,task-xjip,repeat-7g8d#1->-repeat-38fk#1,26308124,BLIND,7766409,NaN,complete,NaN,63c019471dfc66664bd1e86e,computer,Desktop or Laptop,Windows 10,Chrome 108.0.0.0,1366x768,1366x768,Start of Day 2,SLS,90,A,Pass,End of Day 1,Pass,NaN,NaN,NaN,Pass,NaN,Pass,NaN,Start of Day 2,NaN,schedule_A,schedule_A,23,15,3,offer,Zone3,response_button_image,1032.40000003576,NaN,NaN,redBox.png,1,1,0,0,NaN,NaN,NaN,NaN,NaN,trial_right,redBox.png,yellowBox.png,redBox.png,al1_con.png,43,22,NaN,NaN,0.85,0.85,1,1,1,0,Stable,Stable,3.622,1.319,1.193,1.067,expert
112,1673381617038,10/01/2023 20:13:37,1673381618690,0,10/01/2023 20:13:38,111483,5,task-xjip,repeat-7g8d#1->-repeat-38fk#1,26308124,BLIND,7766409,NaN,complete,NaN,63c019471dfc66664bd1e86e,computer,Desktop or Laptop,Windows 10,Chrome 108.0.0.0,1366x768,1366x768,Start of Day 2,SLS,90,A,Pass,End of Day 1,Pass,NaN,NaN,NaN,Pass,NaN,Pass,NaN,Start of Day 2,NaN,schedule_A,schedule_A,23,15,5,feedback_r,Zone7,timelimit_screen,2000.20000000007,NaN,NaN,,NaN,0,1,0,NaN,NaN,1,NaN,NaN,trial_right,redBox.png,yellowBox.png,redBox.png,al1_con.png,43,22,NaN,NaN,0.85,0.85,1,1,1,0,Stable,Stable,3.622,1.319,1.193,1.067,expert
113,1673381617113,10/01/2023 20:13:37,1673381618836,0,10/01/2023 20:13:38,111483,5,task-xjip,repeat-7g8d#1->-repeat-38fk#1,26308124,BLIND,7766409,NaN,complete,NaN,63c019471dfc66664bd1e86e,computer,Desktop or Laptop,Windows 10,Chrome 108.0.0.0,1366x768,1366x768,Start of Day 2,SLS,90,A,Pass,End of Day 1,Pass,NaN,NaN,NaN,Pass,NaN,Pass,NaN,Start of Day 2,NaN,schedule_A,schedule_A,23,15,6,end,Zone1,timelimit_screen,149.693999999901,NaN,NaN,,NaN,0,1,0,NaN,NaN,1,NaN,NaN,trial_right,redBox.png,yellowBox.png,redBox.png,al1_con.png,43,22,NaN,NaN,0.85,0.85,1,1,1,0,Stable,Stable,3.622,1.319,1.193,1.067,expert
114,1673381622520,10/01/2023 20:13:42,1673381624276,0,10/01/2023 20:13:44,111483,5,task-xjip,repeat-7g8d#1->-repeat-38fk#1,26308124,BLIND,7766409,NaN,complete,NaN,63c019471dfc66664bd1e86e,computer,Desktop or Laptop,Windows 10,Chrome 108.0.0.0,1366x768,1366x768,Start of Day 2,SLS,90,A,Pass,End of Day 1,Pass,NaN,NaN,NaN,Pass,NaN,Pass,NaN,Start of Day 2,NaN,schedule_A,schedule_A,24,8,1,Screen 1,Zone1,continue_button,5412,NaN,NaN,,NaN,0,1,0,NaN,NaN,NaN,NaN,NaN,trial_left,redBox.png,redBox.png,yellowBox.png,al1_con.png,44,23,NaN,NaN,0.85,0.85,1,1,1,1,Stable,Stable,1.731,0.853,2,1.202,expert
115,1673381623536,10/01/2023 20:13:43,1673381625280,0,10/01/2023 20:13:45,111483,5,task-xjip,repeat-7g8d#1->-repeat-38fk#1,26308124,BLIND,7766409,NaN,complete,NaN,63c019471dfc66664bd1e86e,computer,Desktop or Laptop,Windows 10,Chrome 108.0.0.0,1366x768,1366x768,Start of Day 2,SLS,90,A,Pass,End of Day 1,Pass,NaN,NaN,NaN,Pass,NaN,Pass,NaN,Start of Day 2,NaN,schedule_A,schedule_A,24,8,2,individual,Zone4,timelimit_screen,999.956000000006,NaN,NaN,,NaN,0,1,0,NaN,NaN,1,NaN,NaN,trial_left,redBox.png,redBox.png,yellowBox.png,al1_con.png,44,23,NaN,NaN,0.85,0.85,1,1,1,1,Stable,Stable,1.731,0.853,2,1.202,expert
116,1673381624801,10/01/2023 20:13:44,1673381626521,0,10/01/2023 20:13:46,111483,5,task-xjip,repeat-7g8d#1->-repeat-38fk#1,26308124,BLIND,7766409,NaN,complete,NaN,63c019471dfc66664bd1e86e,computer,Desktop or Laptop,Windows 10,Chrome 108.0.0.0,1366x768,1366x768,Start of Day 2,SLS,90,A,Pass,End of Day 1,Pass,NaN,NaN,NaN,Pass,NaN,Pass,NaN,Start of Day 2,NaN,schedule_A,schedule_A,24,8,3,offer,Zone2,response_button_image,1195.09999996424,NaN,NaN,redBox.png,1,1,0,0,NaN,NaN,NaN,NaN,NaN,trial_left,redBox.png,redBox.png,yellowBox.png,al1_con.png,44,23,NaN,NaN,0.85,0.85,1,1,1,1,Stable,Stable,1.731,0.853,2,1.202,expert
117,1673381626740,10/01/2023 20:13:46,1673381628503,0,10/01/2023 20:13:48,111483,5,task-xjip,repeat-7g8d#1->-repeat-38fk#1,26308124,BLIND,7766409,NaN,complete,NaN,63c019471dfc66664bd1e86e,computer,Desktop or Laptop,Windows 10,Chrome 108.0.0.0,1366x768,1366x768,Start of Day 2,SLS,90,A,Pass,End of Day 1,Pass,NaN,NaN,NaN,Pass,NaN,Pass,NaN,Start of Day 2,NaN,schedule_A,schedule_A,24,8,4,feedback_l,Zone7,timelimit_screen,1999.88799999992,NaN,NaN,,NaN,0,1,0,NaN,NaN,1,NaN,NaN,trial_left,redBox.png,redBox.png,yellowBox.png,al1_con.png,44,23,NaN,NaN,0.85,0.85,1,1,1,1,Stable,Stable,1.731,0.853,2,1.202,expert
118,1673381626896,10/01/2023 20:13:46,1673381628652,0,10/01/2023 20:13:48,111483,5,task-xjip,repeat-7g8d#1->-repeat-38fk#1,26308124,BLIND,7766409,NaN,complete,NaN,63c019471dfc66664bd1e86e,computer,Desktop or Laptop,Windows 10,Chrome 108.0.0.0,1366x768,1366x768,Start of Day 2,SLS,90,A,Pass,End of Day 1,Pass,NaN,NaN,NaN,Pass,NaN,Pass,NaN,Start of Day 2,NaN,schedule_A,schedule_A,24,8,6,end,Zone1,timelimit_screen,149.996000000043,NaN,NaN,,NaN,0,1,0,NaN,NaN,1,NaN,NaN,trial_left,redBox.png,redBox.png,yellowBox.png,al1_con.png,44,23,NaN,NaN,0.85,0.85,1,1,1,1,Stable,Stable,1.731,0.853,2,1.202,expert
119,1673381627702,10/01/2023 20:13:47,1673381629460,0,10/01/2023 20:13:49,111483,5,task-xjip,repeat-7g8d#1->-repeat-38fk#1,26308124,BLIND,7766409,NaN,complete,NaN,63c019471dfc66664bd1e86e,computer,Desktop or Laptop,Windows 10,Chrome 108.0.0.0,1366x768,1366x768,Start of Day 2,SLS,90,A,Pass,End of Day 1,Pass,NaN,NaN,NaN,Pass,NaN,Pass,NaN,Start of Day 2,NaN,schedule_A,schedule_A,25,16,1,Screen 1,Zone1,continue_button,759.399999976158,NaN,NaN,,NaN,0,1,0,NaN,NaN,NaN,NaN,NaN,trial_right,redBox.png,yellowBox.png,redBox.png,al1_con.png,45,24,NaN,NaN,0.85,0.85,1,1,1,0,Stable,Stable,2.109,1.798,1.508,2.782,expert
120,1673381628694,10/01/2023 20:13:48,1673381630453,0,10/01/2023 20:13:50,111483,5,task-xjip,repeat-7g8d#1->-repeat-38fk#1,26308124,BLIND,7766409,NaN,complete,NaN,63c019471dfc66664bd1e86e,computer,Desktop or Laptop,Windows 10,Chrome 108.0.0.0,1366x768,1366x768,Start of Day 2,SLS,90,A,Pass,End of Day 1,Pass,NaN,NaN,NaN,Pass,NaN,Pass,NaN,Start of Day 2,NaN,schedule_A,schedule_A,25,16,2,individual,Zone4,timelimit_screen,999.940999999992,NaN,NaN,,NaN,0,1,0,NaN,NaN,1,NaN,NaN,trial_right,redBox.png,yellowBox.png,redBox.png,al1_con.png,45,24,NaN,NaN,0.85,0.85,1,1,1,0,Stable,Stable,2.109,1.798,1.508,2.782,expert
121,1673381629674,10/01/2023 20:13:49,1673381631437,0,10/01/2023 20:13:51,111483,5,task-xjip,repeat-7g8d#1->-repeat-38fk#1,26308124,BLIND,7766409,NaN,complete,NaN,63c019471dfc66664bd1e86e,computer,Desktop or Laptop,Windows 10,Chrome 108.0.0.0,1366x768,1366x768,Start of Day 2,SLS,90,A,Pass,End of Day 1,Pass,NaN,NaN,NaN,Pass,NaN,Pass,NaN,Start of Day 2,NaN,schedule_A,schedule_A,25,16,3,offer,Zone3,response_button_image,946.5,NaN,NaN,redBox.png,1,1,0,0,NaN,NaN,NaN,NaN,NaN,trial_right,redBox.png,yellowBox.png,redBox.png,al1_con.png,45,24,NaN,NaN,0.85,0.85,1,1,1,0,Stable,Stable,2.109,1.798,1.508,2.782,expert
122,1673381631660,10/01/2023 20:13:51,1673381633419,0,10/01/2023 20:13:53,111483,5,task-xjip,repeat-7g8d#1->-repeat-38fk#1,26308124,BLIND,7766409,NaN,complete,NaN,63c019471dfc66664bd1e86e,computer,Desktop or Laptop,Windows 10,Chrome 108.0.0.0,1366x768,1366x768,Start of Day 2,SLS,90,A,Pass,End of Day 1,Pass,NaN,NaN,NaN,Pass,NaN,Pass,NaN,Start of Day 2,NaN,schedule_A,schedule_A,25,16,5,feedback_r,Zone7,timelimit_screen,1999.90600000008,NaN,NaN,,NaN,0,1,0,NaN,NaN,1,NaN,NaN,trial_right,redBox.png,yellowBox.png,redBox.png,al1_con.png,45,24,NaN,NaN,0.85,0.85,1,1,1,0,Stable,Stable,2.109,1.798,1.508,2.782,expert
123,1673381631866,10/01/2023 20:13:51,1673381633571,0,10/01/2023 20:13:53,111483,5,task-xjip,repeat-7g8d#1->-repeat-38fk#1,26308124,BLIND,7766409,NaN,complete,NaN,63c019471dfc66664bd1e86e,computer,Desktop or Laptop,Windows 10,Chrome 108.0.0.0,1366x768,1366x768,Start of Day 2,SLS,90,A,Pass,End of Day 1,Pass,NaN,NaN,NaN,Pass,NaN,Pass,NaN,Start of Day 2,NaN,schedule_A,schedule_A,25,16,6,end,Zone1,timelimit_screen,149.991999999969,NaN,NaN,,NaN,0,1,0,NaN,NaN,1,NaN,NaN,trial_right,redBox.png,yellowBox.png,redBox.png,al1_con.png,45,24,NaN,NaN,0.85,0.85,1,1,1,0,Stable,Stable,2.109,1.798,1.508,2.782,expert
124,1673381633664,10/01/2023 20:13:53,1673381635427,0,10/01/2023 20:13:55,111483,5,task-xjip,repeat-7g8d#1->-repeat-38fk#1,26308124,BLIND,7766409,NaN,complete,NaN,63c019471dfc66664bd1e86e,computer,Desktop or Laptop,Windows 10,Chrome 108.0.0.0,1366x768,1366x768,Start of Day 2,SLS,90,A,Pass,End of Day 1,Pass,NaN,NaN,NaN,Pass,NaN,Pass,NaN,Start of Day 2,NaN,schedule_A,schedule_A,26,9,1,Screen 1,Zone1,continue_button,1805.30000001192,NaN,NaN,,NaN,0,1,0,NaN,NaN,NaN,NaN,NaN,trial_left,redBox.png,redBox.png,yellowBox.png,al1_con.png,46,25,NaN,NaN,0.85,0.85,1,1,1,1,Stable,Stable,2.916,1.294,1.962,2.361,expert
125,1673381634651,10/01/2023 20:13:54,1673381636421,0,10/01/2023 20:13:56,111483,5,task-xjip,repeat-7g8d#1->-repeat-38fk#1,26308124,BLIND,7766409,NaN,complete,NaN,63c019471dfc66664bd1e86e,computer,Desktop or Laptop,Windows 10,Chrome 108.0.0.0,1366x768,1366x768,Start of Day 2,SLS,90,A,Pass,End of Day 1,Pass,NaN,NaN,NaN,Pass,NaN,Pass,NaN,Start of Day 2,NaN,schedule_A,schedule_A,26,9,2,individual,Zone4,timelimit_screen,999.939000000013,NaN,NaN,,NaN,0,1,0,NaN,NaN,1,NaN,NaN,trial_left,redBox.png,redBox.png,yellowBox.png,al1_con.png,46,25,NaN,NaN,0.85,0.85,1,1,1,1,Stable,Stable,2.916,1.294,1.962,2.361,expert
126,1673381635623,10/01/2023 20:13:55,1673381637390,0,10/01/2023 20:13:57,111483,5,task-xjip,repeat-7g8d#1->-repeat-38fk#1,26308124,BLIND,7766409,NaN,complete,NaN,63c019471dfc66664bd1e86e,computer,Desktop or Laptop,Windows 10,Chrome 108.0.0.0,1366x768,1366x768,Start of Day 2,SLS,90,A,Pass,End of Day 1,Pass,NaN,NaN,NaN,Pass,NaN,Pass,NaN,Start of Day 2,NaN,schedule_A,schedule_A,26,9,3,offer,Zone2,response_button_image,918.199999988079,NaN,NaN,redBox.png,1,1,0,0,NaN,NaN,NaN,NaN,NaN,trial_left,redBox.png,redBox.png,yellowBox.png,al1_con.png,46,25,NaN,NaN,0.85,0.85,1,1,1,1,Stable,Stable,2.916,1.294,1.962,2.361,expert
127,1673381637784,10/01/2023 20:13:57,1673381639371,0,10/01/2023 20:13:59,111483,5,task-xjip,repeat-7g8d#1->-repeat-38fk#1,26308124,BLIND,7766409,NaN,complete,NaN,63c019471dfc66664bd1e86e,computer,Desktop or Laptop,Windows 10,Chrome 108.0.0.0,1366x768,1366x768,Start of Day 2,SLS,90,A,Pass,End of Day 1,Pass,NaN,NaN,NaN,Pass,NaN,Pass,NaN,Start of Day 2,NaN,schedule_A,schedule_A,26,9,4,feedback_l,Zone7,timelimit_screen,1999.90599999996,NaN,NaN,,NaN,0,1,0,NaN,NaN,1,NaN,NaN,trial_left,redBox.png,redBox.png,yellowBox.png,al1_con.png,46,25,NaN,NaN,0.85,0.85,1,1,1,1,Stable,Stable,2.916,1.294,1.962,2.361,expert
128,1673381637871,10/01/2023 20:13:57,1673381639521,0,10/01/2023 20:13:59,111483,5,task-xjip,repeat-7g8d#1->-repeat-38fk#1,26308124,BLIND,7766409,NaN,complete,NaN,63c019471dfc66664bd1e86e,computer,Desktop or Laptop,Windows 10,Chrome 108.0.0.0,1366x768,1366x768,Start of Day 2,SLS,90,A,Pass,End of Day 1,Pass,NaN,NaN,NaN,Pass,NaN,Pass,NaN,Start of Day 2,NaN,schedule_A,schedule_A,26,9,6,end,Zone1,timelimit_screen,149.994999999995,NaN,NaN,,NaN,0,1,0,NaN,NaN,1,NaN,NaN,trial_left,redBox.png,redBox.png,yellowBox.png,al1_con.png,46,25,NaN,NaN,0.85,0.85,1,1,1,1,Stable,Stable,2.916,1.294,1.962,2.361,expert
129,1673381638659,10/01/2023 20:13:58,1673381640434,0,10/01/2023 20:14:00,111483,5,task-xjip,repeat-7g8d#1->-repeat-38fk#1,26308124,BLIND,7766409,NaN,complete,NaN,63c019471dfc66664bd1e86e,computer,Desktop or Laptop,Windows 10,Chrome 108.0.0.0,1366x768,1366x768,Start of Day 2,SLS,90,A,Pass,End of Day 1,Pass,NaN,NaN,NaN,Pass,NaN,Pass,NaN,Start of Day 2,NaN,schedule_A,schedule_A,27,17,1,Screen 1,Zone1,continue_button,838.600000023842,NaN,NaN,,NaN,0,1,0,NaN,NaN,NaN,NaN,NaN,trial_right,redBox.png,yellowBox.png,redBox.png,al1_con.png,47,26,NaN,NaN,0.85,0.85,1,1,1,0,Stable,Stable,2.487,1.697,1.13,1.286,expert
130,1673381639663,10/01/2023 20:13:59,1673381641422,0,10/01/2023 20:14:01,111483,5,task-xjip,repeat-7g8d#1->-repeat-38fk#1,26308124,BLIND,7766409,NaN,complete,NaN,63c019471dfc66664bd1e86e,computer,Desktop or Laptop,Windows 10,Chrome 108.0.0.0,1366x768,1366x768,Start of Day 2,SLS,90,A,Pass,End of Day 1,Pass,NaN,NaN,NaN,Pass,NaN,Pass,NaN,Start of Day 2,NaN,schedule_A,schedule_A,27,17,2,individual,Zone4,timelimit_screen,999.951999999932,NaN,NaN,,NaN,0,1,0,NaN,NaN,1,NaN,NaN,trial_right,redBox.png,yellowBox.png,redBox.png,al1_con.png,47,26,NaN,NaN,0.85,0.85,1,1,1,0,Stable,Stable,2.487,1.697,1.13,1.286,expert
131,1673381640718,10/01/2023 20:14:00,1673381642485,0,10/01/2023 20:14:02,111483,5,task-xjip,repeat-7g8d#1->-repeat-38fk#1,26308124,BLIND,7766409,NaN,complete,NaN,63c019471dfc66664bd1e86e,computer,Desktop or Laptop,Windows 10,Chrome 108.0.0.0,1366x768,1366x768,Start of Day 2,SLS,90,A,Pass,End of Day 1,Pass,NaN,NaN,NaN,Pass,NaN,Pass,NaN,Start of Day 2,NaN,schedule_A,schedule_A,27,17,3,offer,Zone3,response_button_image,1018.29999995232,NaN,NaN,redBox.png,1,1,0,0,NaN,NaN,NaN,NaN,NaN,trial_right,redBox.png,yellowBox.png,redBox.png,al1_con.png,47,26,NaN,NaN,0.85,0.85,1,1,1,0,Stable,Stable,2.487,1.697,1.13,1.286,expert
132,1673381642706,10/01/2023 20:14:02,1673381644474,0,10/01/2023 20:14:04,111483,5,task-xjip,repeat-7g8d#1->-repeat-38fk#1,26308124,BLIND,7766409,NaN,complete,NaN,63c019471dfc66664bd1e86e,computer,Desktop or Laptop,Windows 10,Chrome 108.0.0.0,1366x768,1366x768,Start of Day 2,SLS,90,A,Pass,End of Day 1,Pass,NaN,NaN,NaN,Pass,NaN,Pass,NaN,Start of Day 2,NaN,schedule_A,schedule_A,27,17,5,feedback_r,Zone7,timelimit_screen,1999.77600000007,NaN,NaN,,NaN,0,1,0,NaN,NaN,1,NaN,NaN,trial_right,redBox.png,yellowBox.png,redBox.png,al1_con.png,47,26,NaN,NaN,0.85,0.85,1,1,1,0,Stable,Stable,2.487,1.697,1.13,1.286,expert
133,1673381642908,10/01/2023 20:14:02,1673381644620,0,10/01/2023 20:14:04,111483,5,task-xjip,repeat-7g8d#1->-repeat-38fk#1,26308124,BLIND,7766409,NaN,complete,NaN,63c019471dfc66664bd1e86e,computer,Desktop or Laptop,Windows 10,Chrome 108.0.0.0,1366x768,1366x768,Start of Day 2,SLS,90,A,Pass,End of Day 1,Pass,NaN,NaN,NaN,Pass,NaN,Pass,NaN,Start of Day 2,NaN,schedule_A,schedule_A,27,17,6,end,Zone1,timelimit_screen,149.979999999981,NaN,NaN,,NaN,0,1,0,NaN,NaN,1,NaN,NaN,trial_right,redBox.png,yellowBox.png,redBox.png,al1_con.png,47,26,NaN,NaN,0.85,0.85,1,1,1,0,Stable,Stable,2.487,1.697,1.13,1.286,expert
134,1673381644324,10/01/2023 20:14:04,1673381646076,0,10/01/2023 20:14:06,111483,5,task-xjip,repeat-7g8d#1->-repeat-38fk#1,26308124,BLIND,7766409,NaN,complete,NaN,63c019471dfc66664bd1e86e,computer,Desktop or Laptop,Windows 10,Chrome 108.0.0.0,1366x768,1366x768,Start of Day 2,SLS,90,A,Pass,End of Day 1,Pass,NaN,NaN,NaN,Pass,NaN,Pass,NaN,Start of Day 2,NaN,schedule_A,schedule_A,28,10,1,Screen 1,Zone1,continue_button,1418.09999996424,NaN,NaN,,NaN,0,1,0,NaN,NaN,NaN,NaN,NaN,trial_left,redBox.png,redBox.png,yellowBox.png,al1_con.png,48,27,NaN,NaN,0.85,0.85,1,1,1,1,Stable,Stable,3.824,1.634,0.992,2.244,expert
135,1673381645304,10/01/2023 20:14:05,1673381647069,0,10/01/2023 20:14:07,111483,5,task-xjip,repeat-7g8d#1->-repeat-38fk#1,26308124,BLIND,7766409,NaN,complete,NaN,63c019471dfc66664bd1e86e,computer,Desktop or Laptop,Windows 10,Chrome 108.0.0.0,1366x768,1366x768,Start of Day 2,SLS,90,A,Pass,End of Day 1,Pass,NaN,NaN,NaN,Pass,NaN,Pass,NaN,Start of Day 2,NaN,schedule_A,schedule_A,28,10,2,individual,Zone4,timelimit_screen,999.940999999992,NaN,NaN,,NaN,0,1,0,NaN,NaN,1,NaN,NaN,trial_left,redBox.png,redBox.png,yellowBox.png,al1_con.png,48,27,NaN,NaN,0.85,0.85,1,1,1,1,Stable,Stable,3.824,1.634,0.992,2.244,expert
136,1673381646682,10/01/2023 20:14:06,1673381648406,0,10/01/2023 20:14:08,111483,5,task-xjip,repeat-7g8d#1->-repeat-38fk#1,26308124,BLIND,7766409,NaN,complete,NaN,63c019471dfc66664bd1e86e,computer,Desktop or Laptop,Windows 10,Chrome 108.0.0.0,1366x768,1366x768,Start of Day 2,SLS,90,A,Pass,End of Day 1,Pass,NaN,NaN,NaN,Pass,NaN,Pass,NaN,Start of Day 2,NaN,schedule_A,schedule_A,28,10,3,offer,Zone2,response_button_image,1319.5,NaN,NaN,redBox.png,1,1,0,0,NaN,NaN,NaN,NaN,NaN,trial_left,redBox.png,redBox.png,yellowBox.png,al1_con.png,48,27,NaN,NaN,0.85,0.85,1,1,1,1,Stable,Stable,3.824,1.634,0.992,2.244,expert
137,1673381648772,10/01/2023 20:14:08,1673381650387,0,10/01/2023 20:14:10,111483,5,task-xjip,repeat-7g8d#1->-repeat-38fk#1,26308124,BLIND,7766409,NaN,complete,NaN,63c019471dfc66664bd1e86e,computer,Desktop or Laptop,Windows 10,Chrome 108.0.0.0,1366x768,1366x768,Start of Day 2,SLS,90,A,Pass,End of Day 1,Pass,NaN,NaN,NaN,Pass,NaN,Pass,NaN,Start of Day 2,NaN,schedule_A,schedule_A,28,10,4,feedback_l,Zone7,timelimit_screen,1999.99400000006,NaN,NaN,,NaN,0,1,0,NaN,NaN,1,NaN,NaN,trial_left,redBox.png,redBox.png,yellowBox.png,al1_con.png,48,27,NaN,NaN,0.85,0.85,1,1,1,1,Stable,Stable,3.824,1.634,0.992,2.244,expert
138,1673381648862,10/01/2023 20:14:08,1673381650537,0,10/01/2023 20:14:10,111483,5,task-xjip,repeat-7g8d#1->-repeat-38fk#1,26308124,BLIND,7766409,NaN,complete,NaN,63c019471dfc66664bd1e86e,computer,Desktop or Laptop,Windows 10,Chrome 108.0.0.0,1366x768,1366x768,Start of Day 2,SLS,90,A,Pass,End of Day 1,Pass,NaN,NaN,NaN,Pass,NaN,Pass,NaN,Start of Day 2,NaN,schedule_A,schedule_A,28,10,6,end,Zone1,timelimit_screen,149.983999999939,NaN,NaN,,NaN,0,1,0,NaN,NaN,1,NaN,NaN,trial_left,redBox.png,redBox.png,yellowBox.png,al1_con.png,48,27,NaN,NaN,0.85,0.85,1,1,1,1,Stable,Stable,3.824,1.634,0.992,2.244,expert
139,1673381649860,10/01/2023 20:14:09,1673381651624,0,10/01/2023 20:14:11,111483,5,task-xjip,repeat-7g8d#1->-repeat-38fk#1,26308124,BLIND,7766409,NaN,complete,NaN,63c019471dfc66664bd1e86e,computer,Desktop or Laptop,Windows 10,Chrome 108.0.0.0,1366x768,1366x768,Start of Day 2,SLS,90,A,Pass,End of Day 1,Pass,NaN,NaN,NaN,Pass,NaN,Pass,NaN,Start of Day 2,NaN,schedule_A,schedule_A,29,11,1,Screen 1,Zone1,continue_button,1004.80000001192,NaN,NaN,,NaN,0,1,0,NaN,NaN,NaN,NaN,NaN,trial_left,redBox.png,redBox.png,yellowBox.png,al1_con.png,49,28,NaN,NaN,0.85,0.85,1,1,1,1,Stable,Stable,2.84,1.937,1.723,2.815,expert
140,1673381650854,10/01/2023 20:14:10,1673381652621,0,10/01/2023 20:14:12,111483,5,task-xjip,repeat-7g8d#1->-repeat-38fk#1,26308124,BLIND,7766409,NaN,complete,NaN,63c019471dfc66664bd1e86e,computer,Desktop or Laptop,Windows 10,Chrome 108.0.0.0,1366x768,1366x768,Start of Day 2,SLS,90,A,Pass,End of Day 1,Pass,NaN,NaN,NaN,Pass,NaN,Pass,NaN,Start of Day 2,NaN,schedule_A,schedule_A,29,11,2,individual,Zone4,timelimit_screen,999.965000000084,NaN,NaN,,NaN,0,1,0,NaN,NaN,1,NaN,NaN,trial_left,redBox.png,redBox.png,yellowBox.png,al1_con.png,49,28,NaN,NaN,0.85,0.85,1,1,1,1,Stable,Stable,2.84,1.937,1.723,2.815,expert
141,1673381652050,10/01/2023 20:14:12,1673381653774,0,10/01/2023 20:14:13,111483,5,task-xjip,repeat-7g8d#1->-repeat-38fk#1,26308124,BLIND,7766409,NaN,complete,NaN,63c019471dfc66664bd1e86e,computer,Desktop or Laptop,Windows 10,Chrome 108.0.0.0,1366x768,1366x768,Start of Day 2,SLS,90,A,Pass,End of Day 1,Pass,NaN,NaN,NaN,Pass,NaN,Pass,NaN,Start of Day 2,NaN,schedule_A,schedule_A,29,11,3,offer,Zone2,response_button_image,1115.19999998808,NaN,NaN,redBox.png,1,1,0,0,NaN,NaN,NaN,NaN,NaN,trial_left,redBox.png,redBox.png,yellowBox.png,al1_con.png,49,28,NaN,NaN,0.85,0.85,1,1,1,1,Stable,Stable,2.84,1.937,1.723,2.815,expert
142,1673381654004,10/01/2023 20:14:14,1673381655770,0,10/01/2023 20:14:15,111483,5,task-xjip,repeat-7g8d#1->-repeat-38fk#1,26308124,BLIND,7766409,NaN,complete,NaN,63c019471dfc66664bd1e86e,computer,Desktop or Laptop,Windows 10,Chrome 108.0.0.0,1366x768,1366x768,Start of Day 2,SLS,90,A,Pass,End of Day 1,Pass,NaN,NaN,NaN,Pass,NaN,Pass,NaN,Start of Day 2,NaN,schedule_A,schedule_A,29,11,4,feedback_l,Zone7,timelimit_screen,1999.88800000004,NaN,NaN,,NaN,0,1,0,NaN,NaN,1,NaN,NaN,trial_left,redBox.png,redBox.png,yellowBox.png,al1_con.png,49,28,NaN,NaN,0.85,0.85,1,1,1,1,Stable,Stable,2.84,1.937,1.723,2.815,expert
143,1673381654244,10/01/2023 20:14:14,1673381655920,0,10/01/2023 20:14:15,111483,5,task-xjip,repeat-7g8d#1->-repeat-38fk#1,26308124,BLIND,7766409,NaN,complete,NaN,63c019471dfc66664bd1e86e,computer,Desktop or Laptop,Windows 10,Chrome 108.0.0.0,1366x768,1366x768,Start of Day 2,SLS,90,A,Pass,End of Day 1,Pass,NaN,NaN,NaN,Pass,NaN,Pass,NaN,Start of Day 2,NaN,schedule_A,schedule_A,29,11,6,end,Zone1,timelimit_screen,149.991000000038,NaN,NaN,,NaN,0,1,0,NaN,NaN,1,NaN,NaN,trial_left,redBox.png,redBox.png,yellowBox.png,al1_con.png,49,28,NaN,NaN,0.85,0.85,1,1,1,1,Stable,Stable,2.84,1.937,1.723,2.815,expert
144,1673381655066,10/01/2023 20:14:15,1673381656837,0,10/01/2023 20:14:16,111483,5,task-xjip,repeat-7g8d#1->-repeat-38fk#1,26308124,BLIND,7766409,NaN,complete,NaN,63c019471dfc66664bd1e86e,computer,Desktop or Laptop,Windows 10,Chrome 108.0.0.0,1366x768,1366x768,Start of Day 2,SLS,90,A,Pass,End of Day 1,Pass,NaN,NaN,NaN,Pass,NaN,Pass,NaN,Start of Day 2,NaN,schedule_A,schedule_A,30,18,1,Screen 1,Zone1,continue_button,865.800000011921,NaN,NaN,,NaN,0,1,0,NaN,NaN,NaN,NaN,NaN,trial_right,redBox.png,yellowBox.png,redBox.png,al1_con.png,50,29,NaN,NaN,0.85,0.85,1,1,1,0,Stable,Stable,2.941,1.71,0.664,1.336,expert
145,1673381656123,10/01/2023 20:14:16,1673381657821,0,10/01/2023 20:14:17,111483,5,task-xjip,repeat-7g8d#1->-repeat-38fk#1,26308124,BLIND,7766409,NaN,complete,NaN,63c019471dfc66664bd1e86e,computer,Desktop or Laptop,Windows 10,Chrome 108.0.0.0,1366x768,1366x768,Start of Day 2,SLS,90,A,Pass,End of Day 1,Pass,NaN,NaN,NaN,Pass,NaN,Pass,NaN,Start of Day 2,NaN,schedule_A,schedule_A,30,18,2,individual,Zone4,timelimit_screen,999.945999999996,NaN,NaN,,NaN,0,1,0,NaN,NaN,1,NaN,NaN,trial_right,redBox.png,yellowBox.png,redBox.png,al1_con.png,50,29,NaN,NaN,0.85,0.85,1,1,1,0,Stable,Stable,2.941,1.71,0.664,1.336,expert
146,1673381657373,10/01/2023 20:14:17,1673381659021,0,10/01/2023 20:14:19,111483,5,task-xjip,repeat-7g8d#1->-repeat-38fk#1,26308124,BLIND,7766409,NaN,complete,NaN,63c019471dfc66664bd1e86e,computer,Desktop or Laptop,Windows 10,Chrome 108.0.0.0,1366x768,1366x768,Start of Day 2,SLS,90,A,Pass,End of Day 1,Pass,NaN,NaN,NaN,Pass,NaN,Pass,NaN,Start of Day 2,NaN,schedule_A,schedule_A,30,18,3,offer,Zone3,response_button_image,1147.69999998808,NaN,NaN,redBox.png,1,1,0,0,NaN,NaN,NaN,NaN,NaN,trial_right,redBox.png,yellowBox.png,redBox.png,al1_con.png,50,29,NaN,NaN,0.85,0.85,1,1,1,0,Stable,Stable,2.941,1.71,0.664,1.336,expert
147,1673381659239,10/01/2023 20:14:19,1673381661003,0,10/01/2023 20:14:21,111483,5,task-xjip,repeat-7g8d#1->-repeat-38fk#1,26308124,BLIND,7766409,NaN,complete,NaN,63c019471dfc66664bd1e86e,computer,Desktop or Laptop,Windows 10,Chrome 108.0.0.0,1366x768,1366x768,Start of Day 2,SLS,90,A,Pass,End of Day 1,Pass,NaN,NaN,NaN,Pass,NaN,Pass,NaN,Start of Day 2,NaN,schedule_A,schedule_A,30,18,5,feedback_r,Zone7,timelimit_screen,1999.91399999999,NaN,NaN,,NaN,0,1,0,NaN,NaN,1,NaN,NaN,trial_right,redBox.png,yellowBox.png,redBox.png,al1_con.png,50,29,NaN,NaN,0.85,0.85,1,1,1,0,Stable,Stable,2.941,1.71,0.664,1.336,expert
148,1673381659381,10/01/2023 20:14:19,1673381661153,0,10/01/2023 20:14:21,111483,5,task-xjip,repeat-7g8d#1->-repeat-38fk#1,26308124,BLIND,7766409,NaN,complete,NaN,63c019471dfc66664bd1e86e,computer,Desktop or Laptop,Windows 10,Chrome 108.0.0.0,1366x768,1366x768,Start of Day 2,SLS,90,A,Pass,End of Day 1,Pass,NaN,NaN,NaN,Pass,NaN,Pass,NaN,Start of Day 2,NaN,schedule_A,schedule_A,30,18,6,end,Zone1,timelimit_screen,149.982000000076,NaN,NaN,,NaN,0,1,0,NaN,NaN,1,NaN,NaN,trial_right,redBox.png,yellowBox.png,redBox.png,al1_con.png,50,29,NaN,NaN,0.85,0.85,1,1,1,0,Stable,Stable,2.941,1.71,0.664,1.336,expert
149,1673381660330,10/01/2023 20:14:20,1673381662092,0,10/01/2023 20:14:22,111483,5,task-xjip,repeat-7g8d#1->-repeat-38fk#1,26308124,BLIND,7766409,NaN,complete,NaN,63c019471dfc66664bd1e86e,computer,Desktop or Laptop,Windows 10,Chrome 108.0.0.0,1366x768,1366x768,Start of Day 2,SLS,90,A,Pass,End of Day 1,Pass,NaN,NaN,NaN,Pass,NaN,Pass,NaN,Start of Day 2,NaN,schedule_A,schedule_A,31,12,1,Screen 1,Zone1,continue_button,854.800000011921,NaN,NaN,,NaN,0,1,0,NaN,NaN,NaN,NaN,NaN,trial_left,redBox.png,redBox.png,yellowBox.png,al1_con.png,61,30,NaN,NaN,0.85,0.85,1,1,1,1,Stable,Stable,2.79,1.735,0.601,2.345,expert
150,1673381661343,10/01/2023 20:14:21,1673381663087,0,10/01/2023 20:14:23,111483,5,task-xjip,repeat-7g8d#1->-repeat-38fk#1,26308124,BLIND,7766409,NaN,complete,NaN,63c019471dfc66664bd1e86e,computer,Desktop or Laptop,Windows 10,Chrome 108.0.0.0,1366x768,1366x768,Start of Day 2,SLS,90,A,Pass,End of Day 1,Pass,NaN,NaN,NaN,Pass,NaN,Pass,NaN,Start of Day 2,NaN,schedule_A,schedule_A,31,12,2,individual,Zone4,timelimit_screen,999.967999999993,NaN,NaN,,NaN,0,1,0,NaN,NaN,1,NaN,NaN,trial_left,redBox.png,redBox.png,yellowBox.png,al1_con.png,61,30,NaN,NaN,0.85,0.85,1,1,1,1,Stable,Stable,2.79,1.735,0.601,2.345,expert
151,1673381662427,10/01/2023 20:14:22,1673381664174,0,10/01/2023 20:14:24,111483,5,task-xjip,repeat-7g8d#1->-repeat-38fk#1,26308124,BLIND,7766409,NaN,complete,NaN,63c019471dfc66664bd1e86e,computer,Desktop or Laptop,Windows 10,Chrome 108.0.0.0,1366x768,1366x768,Start of Day 2,SLS,90,A,Pass,End of Day 1,Pass,NaN,NaN,NaN,Pass,NaN,Pass,NaN,Start of Day 2,NaN,schedule_A,schedule_A,31,12,3,offer,Zone2,response_button_image,1048.40000003576,NaN,NaN,redBox.png,1,1,0,0,NaN,NaN,NaN,NaN,NaN,trial_left,redBox.png,redBox.png,yellowBox.png,al1_con.png,61,30,NaN,NaN,0.85,0.85,1,1,1,1,Stable,Stable,2.79,1.735,0.601,2.345,expert
152,1673381664403,10/01/2023 20:14:24,1673381666170,0,10/01/2023 20:14:26,111483,5,task-xjip,repeat-7g8d#1->-repeat-38fk#1,26308124,BLIND,7766409,NaN,complete,NaN,63c019471dfc66664bd1e86e,computer,Desktop or Laptop,Windows 10,Chrome 108.0.0.0,1366x768,1366x768,Start of Day 2,SLS,90,A,Pass,End of Day 1,Pass,NaN,NaN,NaN,Pass,NaN,Pass,NaN,Start of Day 2,NaN,schedule_A,schedule_A,31,12,4,feedback_l,Zone7,timelimit_screen,1999.55799999996,NaN,NaN,,NaN,0,1,0,NaN,NaN,1,NaN,NaN,trial_left,redBox.png,redBox.png,yellowBox.png,al1_con.png,61,30,NaN,NaN,0.85,0.85,1,1,1,1,Stable,Stable,2.79,1.735,0.601,2.345,expert
153,1673381664643,10/01/2023 20:14:24,1673381666320,0,10/01/2023 20:14:26,111483,5,task-xjip,repeat-7g8d#1->-repeat-38fk#1,26308124,BLIND,7766409,NaN,complete,NaN,63c019471dfc66664bd1e86e,computer,Desktop or Laptop,Windows 10,Chrome 108.0.0.0,1366x768,1366x768,Start of Day 2,SLS,90,A,Pass,End of Day 1,Pass,NaN,NaN,NaN,Pass,NaN,Pass,NaN,Start of Day 2,NaN,schedule_A,schedule_A,31,12,6,end,Zone1,timelimit_screen,149.98900000006,NaN,NaN,,NaN,0,1,0,NaN,NaN,1,NaN,NaN,trial_left,redBox.png,redBox.png,yellowBox.png,al1_con.png,61,30,NaN,NaN,0.85,0.85,1,1,1,1,Stable,Stable,2.79,1.735,0.601,2.345,expert
154,1673381665236,10/01/2023 20:14:25,1673381667009,0,10/01/2023 20:14:27,111483,5,task-xjip,repeat-7g8d#1->-repeat-38fk#1,26308124,BLIND,7766409,NaN,complete,NaN,63c019471dfc66664bd1e86e,computer,Desktop or Laptop,Windows 10,Chrome 108.0.0.0,1366x768,1366x768,Start of Day 2,SLS,90,A,Pass,End of Day 1,Pass,NaN,NaN,NaN,Pass,NaN,Pass,NaN,Start of Day 2,NaN,schedule_A,schedule_A,32,19,1,Screen 1,Zone1,continue_button,614.699999988079,NaN,NaN,,NaN,0,1,0,NaN,NaN,NaN,NaN,NaN,trial_right,redBox.png,redBox.png,yellowBox.png,al1_con.png,62,31,NaN,NaN,0.85,0.15,1,0,0,1,Stable,Volatile,2.538,1.672,1.143,1.555,expert
155,1673381666270,10/01/2023 20:14:26,1673381668007,0,10/01/2023 20:14:28,111483,5,task-xjip,repeat-7g8d#1->-repeat-38fk#1,26308124,BLIND,7766409,NaN,complete,NaN,63c019471dfc66664bd1e86e,computer,Desktop or Laptop,Windows 10,Chrome 108.0.0.0,1366x768,1366x768,Start of Day 2,SLS,90,A,Pass,End of Day 1,Pass,NaN,NaN,NaN,Pass,NaN,Pass,NaN,Start of Day 2,NaN,schedule_A,schedule_A,32,19,2,individual,Zone4,timelimit_screen,1002.68000000005,NaN,NaN,,NaN,0,1,0,NaN,NaN,1,NaN,NaN,trial_right,redBox.png,redBox.png,yellowBox.png,al1_con.png,62,31,NaN,NaN,0.85,0.15,1,0,0,1,Stable,Volatile,2.538,1.672,1.143,1.555,expert
156,1673381668814,10/01/2023 20:14:28,1673381670413,0,10/01/2023 20:14:30,111483,5,task-xjip,repeat-7g8d#1->-repeat-38fk#1,26308124,BLIND,7766409,NaN,complete,NaN,63c019471dfc66664bd1e86e,computer,Desktop or Laptop,Windows 10,Chrome 108.0.0.0,1366x768,1366x768,Start of Day 2,SLS,90,A,Pass,End of Day 1,Pass,NaN,NaN,NaN,Pass,NaN,Pass,NaN,Start of Day 2,NaN,schedule_A,schedule_A,32,19,3,offer,Zone3,response_button_image,2364.60000002384,NaN,NaN,yellowBox.png,1,0,1,0,NaN,NaN,NaN,NaN,NaN,trial_right,redBox.png,redBox.png,yellowBox.png,al1_con.png,62,31,NaN,NaN,0.85,0.15,1,0,0,1,Stable,Volatile,2.538,1.672,1.143,1.555,expert
157,1673381670636,10/01/2023 20:14:30,1673381672403,0,10/01/2023 20:14:32,111483,5,task-xjip,repeat-7g8d#1->-repeat-38fk#1,26308124,BLIND,7766409,NaN,complete,NaN,63c019471dfc66664bd1e86e,computer,Desktop or Laptop,Windows 10,Chrome 108.0.0.0,1366x768,1366x768,Start of Day 2,SLS,90,A,Pass,End of Day 1,Pass,NaN,NaN,NaN,Pass,NaN,Pass,NaN,Start of Day 2,NaN,schedule_A,schedule_A,32,19,5,feedback_r,Zone7,timelimit_screen,1999.89599999995,NaN,NaN,,NaN,0,1,0,NaN,NaN,1,NaN,NaN,trial_right,redBox.png,redBox.png,yellowBox.png,al1_con.png,62,31,NaN,NaN,0.85,0.15,1,0,0,1,Stable,Volatile,2.538,1.672,1.143,1.555,expert
158,1673381670777,10/01/2023 20:14:30,1673381672556,0,10/01/2023 20:14:32,111483,5,task-xjip,repeat-7g8d#1->-repeat-38fk#1,26308124,BLIND,7766409,NaN,complete,NaN,63c019471dfc66664bd1e86e,computer,Desktop or Laptop,Windows 10,Chrome 108.0.0.0,1366x768,1366x768,Start of Day 2,SLS,90,A,Pass,End of Day 1,Pass,NaN,NaN,NaN,Pass,NaN,Pass,NaN,Start of Day 2,NaN,schedule_A,schedule_A,32,19,6,end,Zone1,timelimit_screen,150.290000000037,NaN,NaN,,NaN,0,1,0,NaN,NaN,1,NaN,NaN,trial_right,redBox.png,redBox.png,yellowBox.png,al1_con.png,62,31,NaN,NaN,0.85,0.15,1,0,0,1,Stable,Volatile,2.538,1.672,1.143,1.555,expert
159,1673381671560,10/01/2023 20:14:31,1673381673326,0,10/01/2023 20:14:33,111483,5,task-xjip,repeat-7g8d#1->-repeat-38fk#1,26308124,BLIND,7766409,NaN,complete,NaN,63c019471dfc66664bd1e86e,computer,Desktop or Laptop,Windows 10,Chrome 108.0.0.0,1366x768,1366x768,Start of Day 2,SLS,90,A,Pass,End of Day 1,Pass,NaN,NaN,NaN,Pass,NaN,Pass,NaN,Start of Day 2,NaN,schedule_A,schedule_A,33,13,1,Screen 1,Zone1,continue_button,650.900000035763,NaN,NaN,,NaN,0,1,0,NaN,NaN,NaN,NaN,NaN,trial_left,redBox.png,yellowBox.png,redBox.png,al1_con.png,63,32,NaN,NaN,0.85,0.15,1,0,0,0,Stable,Volatile,2.739,1.13,0.815,1.387,expert
160,1673381672590,10/01/2023 20:14:32,1673381674319,0,10/01/2023 20:14:34,111483,5,task-xjip,repeat-7g8d#1->-repeat-38fk#1,26308124,BLIND,7766409,NaN,complete,NaN,63c019471dfc66664bd1e86e,computer,Desktop or Laptop,Windows 10,Chrome 108.0.0.0,1366x768,1366x768,Start of Day 2,SLS,90,A,Pass,End of Day 1,Pass,NaN,NaN,NaN,Pass,NaN,Pass,NaN,Start of Day 2,NaN,schedule_A,schedule_A,33,13,2,individual,Zone4,timelimit_screen,999.95299999998,NaN,NaN,,NaN,0,1,0,NaN,NaN,1,NaN,NaN,trial_left,redBox.png,yellowBox.png,redBox.png,al1_con.png,63,32,NaN,NaN,0.85,0.15,1,0,0,0,Stable,Volatile,2.739,1.13,0.815,1.387,expert
161,1673381673277,10/01/2023 20:14:33,1673381675049,0,10/01/2023 20:14:35,111483,5,task-xjip,repeat-7g8d#1->-repeat-38fk#1,26308124,BLIND,7766409,NaN,complete,NaN,63c019471dfc66664bd1e86e,computer,Desktop or Laptop,Windows 10,Chrome 108.0.0.0,1366x768,1366x768,Start of Day 2,SLS,90,A,Pass,End of Day 1,Pass,NaN,NaN,NaN,Pass,NaN,Pass,NaN,Start of Day 2,NaN,schedule_A,schedule_A,33,13,3,offer,Zone2,response_button_image,673.400000035763,NaN,NaN,yellowBox.png,1,0,1,0,NaN,NaN,NaN,NaN,NaN,trial_left,redBox.png,yellowBox.png,redBox.png,al1_con.png,63,32,NaN,NaN,0.85,0.15,1,0,0,0,Stable,Volatile,2.739,1.13,0.815,1.387,expert
162,1673381675263,10/01/2023 20:14:35,1673381677036,0,10/01/2023 20:14:37,111483,5,task-xjip,repeat-7g8d#1->-repeat-38fk#1,26308124,BLIND,7766409,NaN,complete,NaN,63c019471dfc66664bd1e86e,computer,Desktop or Laptop,Windows 10,Chrome 108.0.0.0,1366x768,1366x768,Start of Day 2,SLS,90,A,Pass,End of Day 1,Pass,NaN,NaN,NaN,Pass,NaN,Pass,NaN,Start of Day 2,NaN,schedule_A,schedule_A,33,13,4,feedback_l,Zone7,timelimit_screen,1999.745,NaN,NaN,,NaN,0,1,0,NaN,NaN,1,NaN,NaN,trial_left,redBox.png,yellowBox.png,redBox.png,al1_con.png,63,32,NaN,NaN,0.85,0.15,1,0,0,0,Stable,Volatile,2.739,1.13,0.815,1.387,expert
